Session,Subject,GovStructure,Game,interactionDraw,interaction,Period,Partnership,Profit,Matchpay,Finished,Choice,Terminator,PartnerChoice.Poc,PTc,gplay,simplay,Age,Gender
1,1,2-player,CG,1,1,1,8,6.5,6.5,0,C,0,C,NA,1,1,22,Male
1,1,2-player,CG,1,7,34,5,6.5,221,0,C,0,C,NA,1,1,22,Male
1,1,2-player,CG,1,7,29,5,6.5,188.5,0,C,0,C,NA,1,1,22,Male
1,1,2-player,CG,1,7,24,5,6.5,156,0,C,0,C,NA,1,1,22,Male
1,1,2-player,CG,1,2,13,11,2.5,26,4,E-,1,E-,NA,9,6,22,Male
1,1,2-player,CG,1,7,19,5,6.5,123.5,0,C,0,C,NA,1,1,22,Male
1,1,2-player,CG,1,7,14,5,6.5,91,0,C,0,C,NA,1,1,22,Male
1,1,2-player,CG,1,7,9,5,6.5,58.5,0,C,0,C,NA,1,1,22,Male
1,1,2-player,CG,1,1,3,8,6.5,19.5,0,C,0,C,NA,1,1,22,Male
1,1,2-player,CG,1,7,4,5,6.5,26,0,C,0,C,NA,1,1,22,Male
1,1,2-player,CG,1,6,11,4,6.5,71.5,0,C,0,C,NA,1,1,22,Male
1,1,2-player,CG,1,6,6,4,6.5,39,0,C,0,C,NA,1,1,22,Male
1,1,2-player,CG,1,3,1,12,6.5,6.5,0,C,0,C,NA,1,1,22,Male
1,1,2-player,CG,1,7,21,5,6.5,136.5,0,C,0,C,NA,1,1,22,Male
1,1,2-player,CG,1,6,1,4,6.5,6.5,0,C,0,C,NA,1,1,22,Male
1,1,2-player,CG,1,5,2,9,6.5,13,0,C,0,C,NA,1,1,22,Male
1,1,2-player,CG,1,4,8,1,6.5,52,0,C,0,C,NA,1,1,22,Male
1,1,2-player,CG,1,7,6,5,6.5,39,0,C,0,C,NA,1,1,22,Male
1,1,2-player,CG,1,4,3,1,6.5,19.5,0,C,0,C,NA,1,1,22,Male
1,1,2-player,CG,1,3,3,12,6.5,19.5,0,C,0,C,NA,1,1,22,Male
1,1,2-player,CG,1,2,12,11,2.5,23.5,4,E-,1,E-,NA,9,6,22,Male
1,1,2-player,CG,1,7,23,5,6.5,149.5,0,C,0,C,NA,1,1,22,Male
1,1,2-player,CG,1,2,7,11,2.5,11,4,E-,1,E-,NA,9,6,22,Male
1,1,2-player,CG,1,2,2,11,-0.5,-1,0,C,0,nC,NA,2,2,22,Male
1,1,2-player,CG,1,1,2,8,6.5,13,0,C,0,C,NA,1,1,22,Male
1,1,2-player,CG,1,7,35,5,6.5,227.5,0,C,0,C,NA,1,1,22,Male
1,1,2-player,CG,1,7,30,5,6.5,195,0,C,0,C,NA,1,1,22,Male
1,1,2-player,CG,1,7,25,5,6.5,162.5,0,C,0,C,NA,1,1,22,Male
1,1,2-player,CG,1,2,14,11,2.5,28.5,4,E-,1,E-,NA,9,6,22,Male
1,1,2-player,CG,1,7,20,5,6.5,130,0,C,0,C,NA,1,1,22,Male
1,1,2-player,CG,1,7,15,5,6.5,97.5,0,C,0,C,NA,1,1,22,Male
1,1,2-player,CG,1,7,10,5,6.5,65,0,C,0,C,NA,1,1,22,Male
1,1,2-player,CG,1,1,4,8,6.5,26,0,C,0,C,NA,1,1,22,Male
1,1,2-player,CG,1,7,5,5,6.5,32.5,0,C,0,C,NA,1,1,22,Male
1,1,2-player,CG,1,6,12,4,6.5,78,0,C,0,C,NA,1,1,22,Male
1,1,2-player,CG,1,6,7,4,6.5,45.5,0,C,0,C,NA,1,1,22,Male
1,1,2-player,CG,1,3,2,12,6.5,13,0,C,0,C,NA,1,1,22,Male
1,1,2-player,CG,1,7,22,5,6.5,143,0,C,0,C,NA,1,1,22,Male
1,1,2-player,CG,1,6,2,4,6.5,13,0,C,0,C,NA,1,1,22,Male
1,1,2-player,CG,1,5,3,9,6.5,19.5,0,C,0,C,NA,1,1,22,Male
1,1,2-player,CG,1,4,9,1,6.5,58.5,0,C,0,C,NA,1,1,22,Male
1,1,2-player,CG,1,7,7,5,6.5,45.5,0,C,0,C,NA,1,1,22,Male
1,1,2-player,CG,1,4,4,1,6.5,26,0,C,0,C,NA,1,1,22,Male
1,1,2-player,CG,1,3,4,12,6.5,26,0,C,0,C,NA,1,1,22,Male
1,1,2-player,CG,1,2,9,11,2.5,16,4,E-,1,E-,NA,9,6,22,Male
1,1,2-player,CG,1,7,1,5,6.5,6.5,0,C,0,C,NA,1,1,22,Male
1,1,2-player,CG,1,2,8,11,2.5,13.5,4,E-,1,E-,NA,9,6,22,Male
1,1,2-player,CG,1,2,3,11,2,1,0,nC,0,nC,NA,6,4,22,Male
1,1,2-player,CG,1,4,11,1,6.5,71.5,0,C,0,C,NA,1,1,22,Male
1,1,2-player,CG,1,7,36,5,6.5,234,0,C,0,C,NA,1,1,22,Male
1,1,2-player,CG,1,7,31,5,6.5,201.5,0,C,0,C,NA,1,1,22,Male
1,1,2-player,CG,1,7,26,5,6.5,169,0,C,0,C,NA,1,1,22,Male
1,1,2-player,CG,1,7,8,5,6.5,52,0,C,0,C,NA,1,1,22,Male
1,1,2-player,CG,1,4,5,1,6.5,32.5,0,C,0,C,NA,1,1,22,Male
1,1,2-player,CG,1,7,16,5,6.5,104,0,C,0,C,NA,1,1,22,Male
1,1,2-player,CG,1,7,11,5,6.5,71.5,0,C,0,C,NA,1,1,22,Male
1,1,2-player,CG,1,1,5,8,6.5,32.5,0,C,0,C,NA,1,1,22,Male
1,1,2-player,CG,1,6,9,4,6.5,58.5,0,C,0,C,NA,1,1,22,Male
1,1,2-player,CG,1,2,4,11,2.5,3.5,4,E,1,nC,NA,7,5,22,Male
1,1,2-player,CG,1,6,8,4,6.5,52,0,C,0,C,NA,1,1,22,Male
1,1,2-player,CG,1,7,37,5,6.5,240.5,0,C,0,C,NA,1,1,22,Male
1,1,2-player,CG,1,7,32,5,6.5,208,0,C,0,C,NA,1,1,22,Male
1,1,2-player,CG,1,6,3,4,6.5,19.5,0,C,0,C,NA,1,1,22,Male
1,1,2-player,CG,1,5,4,9,6.5,26,0,C,0,C,NA,1,1,22,Male
1,1,2-player,CG,1,4,10,1,6.5,65,0,C,0,C,NA,1,1,22,Male
1,1,2-player,CG,1,7,17,5,6.5,110.5,0,C,0,C,NA,1,1,22,Male
1,1,2-player,CG,1,7,12,5,6.5,78,0,C,0,C,NA,1,1,22,Male
1,1,2-player,CG,1,3,5,12,6.5,32.5,0,C,0,C,NA,1,1,22,Male
1,1,2-player,CG,1,2,10,11,2.5,18.5,4,E-,1,E-,NA,9,6,22,Male
1,1,2-player,CG,1,7,2,5,6.5,13,0,C,0,C,NA,1,1,22,Male
1,1,2-player,CG,1,5,5,9,6.5,32.5,0,C,0,C,NA,1,1,22,Male
1,1,2-player,CG,1,6,5,4,6.5,32.5,0,C,0,C,NA,1,1,22,Male
1,1,2-player,CG,1,5,1,9,6.5,6.5,0,C,0,C,NA,1,1,22,Male
1,1,2-player,CG,1,6,4,4,6.5,26,0,C,0,C,NA,1,1,22,Male
1,1,2-player,CG,1,4,1,1,6.5,6.5,0,C,0,C,NA,1,1,22,Male
1,1,2-player,CG,1,7,27,5,6.5,175.5,0,C,0,C,NA,1,1,22,Male
1,1,2-player,CG,1,7,18,5,6.5,117,0,C,0,C,NA,1,1,22,Male
1,1,2-player,CG,1,4,6,1,6.5,39,0,C,0,C,NA,1,1,22,Male
1,1,2-player,CG,1,2,5,11,2.5,6,4,E-,1,E-,NA,9,6,22,Male
1,1,2-player,CG,1,2,11,11,2.5,21,4,E-,1,E-,NA,9,6,22,Male
1,1,2-player,CG,1,2,1,11,-0.5,-0.5,0,C,0,nC,NA,2,2,22,Male
1,1,2-player,CG,1,6,10,4,6.5,65,0,C,0,C,NA,1,1,22,Male
1,1,2-player,CG,1,7,28,5,6.5,182,0,C,0,C,NA,1,1,22,Male
1,1,2-player,CG,1,4,7,1,6.5,45.5,0,C,0,C,NA,1,1,22,Male
1,1,2-player,CG,1,7,33,5,6.5,214.5,0,C,0,C,NA,1,1,22,Male
1,1,2-player,CG,1,7,13,5,6.5,84.5,0,C,0,C,NA,1,1,22,Male
1,1,2-player,CG,1,4,2,1,6.5,13,0,C,0,C,NA,1,1,22,Male
1,1,2-player,CG,1,5,6,9,6.5,39,0,C,0,C,NA,1,1,22,Male
1,1,2-player,CG,1,7,3,5,6.5,19.5,0,C,0,C,NA,1,1,22,Male
1,1,2-player,CG,1,2,6,11,2.5,8.5,4,E-,1,E-,NA,9,6,22,Male
1,10,2-player,CG,1,7,4,11,6.5,26,0,C,0,C,NA,1,1,23,Male
1,10,2-player,CG,1,3,2,1,6.5,13,0,C,0,C,NA,1,1,23,Male
1,10,2-player,CG,1,3,4,1,6.5,26,0,C,0,C,NA,1,1,23,Male
1,10,2-player,CG,1,6,7,6,6.5,45.5,0,C,0,C,NA,1,1,23,Male
1,10,2-player,CG,1,3,3,1,6.5,19.5,0,C,0,C,NA,1,1,23,Male
1,10,2-player,CG,1,4,1,5,6.5,6.5,0,C,0,C,NA,1,1,23,Male
1,10,2-player,CG,1,7,21,11,6.5,136.5,0,C,0,C,NA,1,1,23,Male
1,10,2-player,CG,1,3,1,1,6.5,6.5,0,C,0,C,NA,1,1,23,Male
1,10,2-player,CG,1,6,6,6,6.5,39,0,C,0,C,NA,1,1,23,Male
1,10,2-player,CG,1,1,5,1,6.5,32.5,0,C,0,C,NA,1,1,23,Male
1,10,2-player,CG,1,7,24,11,6.5,156,0,C,0,C,NA,1,1,23,Male
1,10,2-player,CG,1,3,5,1,6.5,32.5,0,C,0,C,NA,1,1,23,Male
1,10,2-player,CG,1,7,7,11,6.5,45.5,0,C,0,C,NA,1,1,23,Male
1,10,2-player,CG,1,7,5,11,6.5,32.5,0,C,0,C,NA,1,1,23,Male
1,10,2-player,CG,1,4,11,5,6.5,71.5,0,C,0,C,NA,1,1,23,Male
1,10,2-player,CG,1,2,3,8,2.5,10,2,E-,0,E-,NA,9,6,23,Male
1,10,2-player,CG,1,4,2,5,6.5,13,0,C,0,C,NA,1,1,23,Male
1,10,2-player,CG,1,7,22,11,6.5,143,0,C,0,C,NA,1,1,23,Male
1,10,2-player,CG,1,7,26,11,6.5,169,0,C,0,C,NA,1,1,23,Male
1,10,2-player,CG,1,7,8,11,6.5,52,0,C,0,C,NA,1,1,23,Male
1,10,2-player,CG,1,2,1,8,5,5,0,nC,0,C,NA,4,2,23,Male
1,10,2-player,CG,1,7,16,11,6.5,104,0,C,0,C,NA,1,1,23,Male
1,10,2-player,CG,1,7,11,11,6.5,71.5,0,C,0,C,NA,1,1,23,Male
1,10,2-player,CG,1,5,2,1,6.5,13,0,C,0,C,NA,1,1,23,Male
1,10,2-player,CG,1,4,4,5,6.5,26,0,C,0,C,NA,1,1,23,Male
1,10,2-player,CG,1,5,1,1,6.5,6.5,0,C,0,C,NA,1,1,23,Male
1,10,2-player,CG,1,6,8,6,6.5,52,0,C,0,C,NA,1,1,23,Male
1,10,2-player,CG,1,4,3,5,6.5,19.5,0,C,0,C,NA,1,1,23,Male
1,10,2-player,CG,1,7,23,11,6.5,149.5,0,C,0,C,NA,1,1,23,Male
1,10,2-player,CG,1,4,6,5,6.5,39,0,C,0,C,NA,1,1,23,Male
1,10,2-player,CG,1,6,11,6,-0.5,57.5,0,C,0,nC,NA,2,2,23,Male
1,10,2-player,CG,1,2,2,8,2.5,7.5,2,C,0,E,NA,8,5,23,Male
1,10,2-player,CG,1,7,17,11,6.5,110.5,0,C,0,C,NA,1,1,23,Male
1,10,2-player,CG,1,2,10,8,2.5,27.5,2,E-,0,E-,NA,9,6,23,Male
1,10,2-player,CG,1,7,25,11,6.5,162.5,0,C,0,C,NA,1,1,23,Male
1,10,2-player,CG,1,4,5,5,6.5,32.5,0,C,0,C,NA,1,1,23,Male
1,10,2-player,CG,1,7,20,11,6.5,130,0,C,0,C,NA,1,1,23,Male
1,10,2-player,CG,1,7,6,11,6.5,39,0,C,0,C,NA,1,1,23,Male
1,10,2-player,CG,1,7,19,11,6.5,123.5,0,C,0,C,NA,1,1,23,Male
1,10,2-player,CG,1,2,4,8,2.5,12.5,2,E-,0,E-,NA,9,6,23,Male
1,10,2-player,CG,1,4,7,5,6.5,45.5,0,C,0,C,NA,1,1,23,Male
1,10,2-player,CG,1,6,12,6,6.5,64,0,C,0,C,NA,1,1,23,Male
1,10,2-player,CG,1,7,27,11,6.5,175.5,0,C,0,C,NA,1,1,23,Male
1,10,2-player,CG,1,1,3,1,6.5,19.5,0,C,0,C,NA,1,1,23,Male
1,10,2-player,CG,1,2,11,8,2.5,30,2,E-,0,E-,NA,9,6,23,Male
1,10,2-player,CG,1,7,31,11,6.5,201.5,0,C,0,C,NA,1,1,23,Male
1,10,2-player,CG,1,7,12,11,6.5,78,0,C,0,C,NA,1,1,23,Male
1,10,2-player,CG,1,5,3,1,6.5,19.5,0,C,0,C,NA,1,1,23,Male
1,10,2-player,CG,1,1,1,1,6.5,6.5,0,C,0,C,NA,1,1,23,Male
1,10,2-player,CG,1,7,2,11,6.5,13,0,C,0,C,NA,1,1,23,Male
1,10,2-player,CG,1,6,9,6,6.5,58.5,0,C,0,C,NA,1,1,23,Male
1,10,2-player,CG,1,4,8,5,6.5,52,0,C,0,C,NA,1,1,23,Male
1,10,2-player,CG,1,2,13,8,2.5,35,2,E-,0,E-,NA,9,6,23,Male
1,10,2-player,CG,1,7,14,11,6.5,91,0,C,0,C,NA,1,1,23,Male
1,10,2-player,CG,1,7,9,11,6.5,58.5,0,C,0,C,NA,1,1,23,Male
1,10,2-player,CG,1,5,5,1,6.5,32.5,0,C,0,C,NA,1,1,23,Male
1,10,2-player,CG,1,7,18,11,6.5,117,0,C,0,C,NA,1,1,23,Male
1,10,2-player,CG,1,7,36,11,6.5,234,0,C,0,C,NA,1,1,23,Male
1,10,2-player,CG,1,5,4,1,6.5,26,0,C,0,C,NA,1,1,23,Male
1,10,2-player,CG,1,1,2,1,6.5,13,0,C,0,C,NA,1,1,23,Male
1,10,2-player,CG,1,7,3,11,6.5,19.5,0,C,0,C,NA,1,1,23,Male
1,10,2-player,CG,1,6,10,6,-0.5,58,0,C,0,nC,NA,2,2,23,Male
1,10,2-player,CG,1,6,1,6,6.5,6.5,0,C,0,C,NA,1,1,23,Male
1,10,2-player,CG,1,2,5,8,2.5,15,2,E-,0,E-,NA,9,6,23,Male
1,10,2-player,CG,1,7,15,11,6.5,97.5,0,C,0,C,NA,1,1,23,Male
1,10,2-player,CG,1,7,1,11,6.5,6.5,0,C,0,C,NA,1,1,23,Male
1,10,2-player,CG,1,7,28,11,6.5,182,0,C,0,C,NA,1,1,23,Male
1,10,2-player,CG,1,1,4,1,6.5,26,0,C,0,C,NA,1,1,23,Male
1,10,2-player,CG,1,2,12,8,2.5,32.5,2,E-,0,E-,NA,9,6,23,Male
1,10,2-player,CG,1,7,32,11,6.5,208,0,C,0,C,NA,1,1,23,Male
1,10,2-player,CG,1,7,13,11,6.5,84.5,0,C,0,C,NA,1,1,23,Male
1,10,2-player,CG,1,6,3,6,6.5,19.5,0,C,0,C,NA,1,1,23,Male
1,10,2-player,CG,1,2,7,8,2.5,20,2,E-,0,E-,NA,9,6,23,Male
1,10,2-player,CG,1,6,2,6,6.5,13,0,C,0,C,NA,1,1,23,Male
1,10,2-player,CG,1,2,6,8,2.5,17.5,2,E-,0,E-,NA,9,6,23,Male
1,10,2-player,CG,1,4,9,5,6.5,58.5,0,C,0,C,NA,1,1,23,Male
1,10,2-player,CG,1,2,14,8,2.5,37.5,2,E-,0,E-,NA,9,6,23,Male
1,10,2-player,CG,1,7,29,11,6.5,188.5,0,C,0,C,NA,1,1,23,Male
1,10,2-player,CG,1,7,10,11,6.5,65,0,C,0,C,NA,1,1,23,Male
1,10,2-player,CG,1,5,6,1,6.5,39,0,C,0,C,NA,1,1,23,Male
1,10,2-player,CG,1,7,33,11,6.5,214.5,0,C,0,C,NA,1,1,23,Male
1,10,2-player,CG,1,7,37,11,6.5,240.5,0,C,0,C,NA,1,1,23,Male
1,10,2-player,CG,1,2,8,8,2.5,22.5,2,E-,0,E-,NA,9,6,23,Male
1,10,2-player,CG,1,7,35,11,6.5,227.5,0,C,0,C,NA,1,1,23,Male
1,10,2-player,CG,1,7,30,11,6.5,195,0,C,0,C,NA,1,1,23,Male
1,10,2-player,CG,1,7,34,11,6.5,221,0,C,0,C,NA,1,1,23,Male
1,10,2-player,CG,1,4,10,5,6.5,65,0,C,0,C,NA,1,1,23,Male
1,10,2-player,CG,1,6,5,6,6.5,32.5,0,C,0,C,NA,1,1,23,Male
1,10,2-player,CG,1,2,9,8,2.5,25,2,E-,0,E-,NA,9,6,23,Male
1,10,2-player,CG,1,6,4,6,6.5,26,0,C,0,C,NA,1,1,23,Male
1,11,2-player,CG,1,7,27,8,6.5,175.5,0,C,0,C,NA,1,1,35,Female
1,11,2-player,CG,1,6,9,5,6.5,58.5,0,C,0,C,NA,1,1,35,Female
1,11,2-player,CG,1,6,6,5,6.5,39,0,C,0,C,NA,1,1,35,Female
1,11,2-player,CG,1,7,26,8,6.5,169,0,C,0,C,NA,1,1,35,Female
1,11,2-player,CG,1,7,24,8,6.5,156,0,C,0,C,NA,1,1,35,Female
1,11,2-player,CG,1,6,7,5,6.5,45.5,0,C,0,C,NA,1,1,35,Female
1,11,2-player,CG,1,5,5,7,6.5,32.5,0,C,0,C,NA,1,1,35,Female
1,11,2-player,CG,1,4,2,8,6.5,13,0,C,0,C,NA,1,1,35,Female
1,11,2-player,CG,1,3,2,11,6.5,13,0,C,0,C,NA,1,1,35,Female
1,11,2-player,CG,1,4,1,8,6.5,6.5,0,C,0,C,NA,1,1,35,Female
1,11,2-player,CG,1,3,1,11,6.5,6.5,0,C,0,C,NA,1,1,35,Female
1,11,2-player,CG,1,7,25,8,6.5,162.5,0,C,0,C,NA,1,1,35,Female
1,11,2-player,CG,1,7,21,8,6.5,136.5,0,C,0,C,NA,1,1,35,Female
1,11,2-player,CG,1,7,11,8,6.5,71.5,0,C,0,C,NA,1,1,35,Female
1,11,2-player,CG,1,2,5,12,6.5,32.5,0,C,0,C,NA,1,1,35,Female
1,11,2-player,CG,1,4,4,8,6.5,26,0,C,0,C,NA,1,1,35,Female
1,11,2-player,CG,1,6,8,5,6.5,52,0,C,0,C,NA,1,1,35,Female
1,11,2-player,CG,1,7,28,8,6.5,182,0,C,0,C,NA,1,1,35,Female
1,11,2-player,CG,1,4,3,8,6.5,19.5,0,C,0,C,NA,1,1,35,Female
1,11,2-player,CG,1,3,3,11,6.5,19.5,0,C,0,C,NA,1,1,35,Female
1,11,2-player,CG,1,4,11,8,6.5,71.5,0,C,0,C,NA,1,1,35,Female
1,11,2-player,CG,1,7,4,8,6.5,26,0,C,0,C,NA,1,1,35,Female
1,11,2-player,CG,1,6,11,5,6.5,71.5,0,C,0,C,NA,1,1,35,Female
1,11,2-player,CG,1,7,22,8,6.5,143,0,C,0,C,NA,1,1,35,Female
1,11,2-player,CG,1,7,12,8,6.5,78,0,C,0,C,NA,1,1,35,Female
1,11,2-player,CG,1,6,10,5,6.5,65,0,C,0,C,NA,1,1,35,Female
1,11,2-player,CG,1,4,5,8,6.5,32.5,0,C,0,C,NA,1,1,35,Female
1,11,2-player,CG,1,3,5,11,6.5,32.5,0,C,0,C,NA,1,1,35,Female
1,11,2-player,CG,1,1,5,2,6.5,32.5,0,C,0,C,NA,1,1,35,Female
1,11,2-player,CG,1,3,4,11,6.5,26,0,C,0,C,NA,1,1,35,Female
1,11,2-player,CG,1,5,6,7,6.5,39,0,C,0,C,NA,1,1,35,Female
1,11,2-player,CG,1,5,1,7,6.5,6.5,0,C,0,C,NA,1,1,35,Female
1,11,2-player,CG,1,7,5,8,6.5,32.5,0,C,0,C,NA,1,1,35,Female
1,11,2-player,CG,1,6,12,5,6.5,78,0,C,0,C,NA,1,1,35,Female
1,11,2-player,CG,1,2,3,12,6.5,19.5,0,C,0,C,NA,1,1,35,Female
1,11,2-player,CG,1,4,6,8,6.5,39,0,C,0,C,NA,1,1,35,Female
1,11,2-player,CG,1,7,31,8,6.5,201.5,0,C,0,C,NA,1,1,35,Female
1,11,2-player,CG,1,2,2,12,6.5,13,0,C,0,C,NA,1,1,35,Female
1,11,2-player,CG,1,2,6,12,6.5,39,0,C,0,C,NA,1,1,35,Female
1,11,2-player,CG,1,2,1,12,6.5,6.5,0,C,0,C,NA,1,1,35,Female
1,11,2-player,CG,1,7,7,8,6.5,45.5,0,C,0,C,NA,1,1,35,Female
1,11,2-player,CG,1,7,29,8,6.5,188.5,0,C,0,C,NA,1,1,35,Female
1,11,2-player,CG,1,5,2,7,6.5,13,0,C,0,C,NA,1,1,35,Female
1,11,2-player,CG,1,7,6,8,6.5,39,0,C,0,C,NA,1,1,35,Female
1,11,2-player,CG,1,7,19,8,6.5,123.5,0,C,0,C,NA,1,1,35,Female
1,11,2-player,CG,1,7,9,8,6.5,58.5,0,C,0,C,NA,1,1,35,Female
1,11,2-player,CG,1,2,8,12,6.5,52,0,C,0,C,NA,1,1,35,Female
1,11,2-player,CG,1,7,23,8,6.5,149.5,0,C,0,C,NA,1,1,35,Female
1,11,2-player,CG,1,7,13,8,6.5,84.5,0,C,0,C,NA,1,1,35,Female
1,11,2-player,CG,1,2,7,12,6.5,45.5,0,C,0,C,NA,1,1,35,Female
1,11,2-player,CG,1,2,11,12,6.5,71.5,0,C,0,C,NA,1,1,35,Female
1,11,2-player,CG,1,7,8,8,6.5,52,0,C,0,C,NA,1,1,35,Female
1,11,2-player,CG,1,2,10,12,6.5,65,0,C,0,C,NA,1,1,35,Female
1,11,2-player,CG,1,7,16,8,6.5,104,0,C,0,C,NA,1,1,35,Female
1,11,2-player,CG,1,6,1,5,6.5,6.5,0,C,0,C,NA,1,1,35,Female
1,11,2-player,CG,1,7,20,8,6.5,130,0,C,0,C,NA,1,1,35,Female
1,11,2-player,CG,1,7,10,8,6.5,65,0,C,0,C,NA,1,1,35,Female
1,11,2-player,CG,1,7,1,8,6.5,6.5,0,C,0,C,NA,1,1,35,Female
1,11,2-player,CG,1,2,4,12,6.5,26,0,C,0,C,NA,1,1,35,Female
1,11,2-player,CG,1,4,7,8,6.5,45.5,0,C,0,C,NA,1,1,35,Female
1,11,2-player,CG,1,7,32,8,6.5,208,0,C,0,C,NA,1,1,35,Female
1,11,2-player,CG,1,2,12,12,6.5,78,0,C,0,C,NA,1,1,35,Female
1,11,2-player,CG,1,1,3,2,6.5,19.5,0,C,0,C,NA,1,1,35,Female
1,11,2-player,CG,1,7,36,8,6.5,234,0,C,0,C,NA,1,1,35,Female
1,11,2-player,CG,1,7,17,8,6.5,110.5,0,C,0,C,NA,1,1,35,Female
1,11,2-player,CG,1,7,30,8,6.5,195,0,C,0,C,NA,1,1,35,Female
1,11,2-player,CG,1,5,3,7,6.5,19.5,0,C,0,C,NA,1,1,35,Female
1,11,2-player,CG,1,1,1,2,6.5,6.5,0,C,0,C,NA,1,1,35,Female
1,11,2-player,CG,1,7,2,8,6.5,13,0,C,0,C,NA,1,1,35,Female
1,11,2-player,CG,1,2,14,12,6.5,91,0,C,0,C,NA,1,1,35,Female
1,11,2-player,CG,1,2,9,12,6.5,58.5,0,C,0,C,NA,1,1,35,Female
1,11,2-player,CG,1,2,13,12,6.5,84.5,0,C,0,C,NA,1,1,35,Female
1,11,2-player,CG,1,7,14,8,6.5,91,0,C,0,C,NA,1,1,35,Female
1,11,2-player,CG,1,6,4,5,6.5,26,0,C,0,C,NA,1,1,35,Female
1,11,2-player,CG,1,7,37,8,6.5,240.5,0,C,0,C,NA,1,1,35,Female
1,11,2-player,CG,1,7,18,8,6.5,117,0,C,0,C,NA,1,1,35,Female
1,11,2-player,CG,1,6,3,5,6.5,19.5,0,C,0,C,NA,1,1,35,Female
1,11,2-player,CG,1,5,4,7,6.5,26,0,C,0,C,NA,1,1,35,Female
1,11,2-player,CG,1,6,2,5,6.5,13,0,C,0,C,NA,1,1,35,Female
1,11,2-player,CG,1,7,3,8,6.5,19.5,0,C,0,C,NA,1,1,35,Female
1,11,2-player,CG,1,7,35,8,6.5,227.5,0,C,0,C,NA,1,1,35,Female
1,11,2-player,CG,1,4,9,8,6.5,58.5,0,C,0,C,NA,1,1,35,Female
1,11,2-player,CG,1,7,34,8,6.5,221,0,C,0,C,NA,1,1,35,Female
1,11,2-player,CG,1,4,8,8,6.5,52,0,C,0,C,NA,1,1,35,Female
1,11,2-player,CG,1,7,33,8,6.5,214.5,0,C,0,C,NA,1,1,35,Female
1,11,2-player,CG,1,6,5,5,6.5,32.5,0,C,0,C,NA,1,1,35,Female
1,11,2-player,CG,1,1,4,2,6.5,26,0,C,0,C,NA,1,1,35,Female
1,11,2-player,CG,1,1,2,2,6.5,13,0,C,0,C,NA,1,1,35,Female
1,11,2-player,CG,1,4,10,8,6.5,65,0,C,0,C,NA,1,1,35,Female
1,11,2-player,CG,1,7,15,8,6.5,97.5,0,C,0,C,NA,1,1,35,Female
1,12,2-player,CG,1,6,8,6,6.5,52,0,C,0,C,NA,1,1,24,Female
1,12,2-player,CG,1,7,26,10,6.5,156,0,C,0,C,NA,1,1,24,Female
1,12,2-player,CG,1,6,7,6,6.5,45.5,0,C,0,C,NA,1,1,24,Female
1,12,2-player,CG,1,6,6,6,6.5,39,0,C,0,C,NA,1,1,24,Female
1,12,2-player,CG,1,7,29,10,6.5,175.5,0,C,0,C,NA,1,1,24,Female
1,12,2-player,CG,1,7,24,10,6.5,143,0,C,0,C,NA,1,1,24,Female
1,12,2-player,CG,1,6,11,6,5,68.5,0,nC,0,C,NA,4,2,24,Female
1,12,2-player,CG,1,7,25,10,6.5,149.5,0,C,0,C,NA,1,1,24,Female
1,12,2-player,CG,1,7,33,10,6.5,201.5,0,C,0,C,NA,1,1,24,Female
1,12,2-player,CG,1,6,12,6,6.5,75,0,C,0,C,NA,1,1,24,Female
1,12,2-player,CG,1,7,32,10,6.5,195,0,C,0,C,NA,1,1,24,Female
1,12,2-player,CG,1,7,27,10,6.5,162.5,0,C,0,C,NA,1,1,24,Female
1,12,2-player,CG,1,7,31,10,6.5,188.5,0,C,0,C,NA,1,1,24,Female
1,12,2-player,CG,1,7,4,10,6.5,26,0,C,0,C,NA,1,1,24,Female
1,12,2-player,CG,1,1,3,5,6.5,19.5,0,C,0,C,NA,1,1,24,Female
1,12,2-player,CG,1,7,30,10,6.5,182,0,C,0,C,NA,1,1,24,Female
1,12,2-player,CG,1,7,3,10,6.5,19.5,0,C,0,C,NA,1,1,24,Female
1,12,2-player,CG,1,7,16,10,6.5,91,0,C,0,C,NA,1,1,24,Female
1,12,2-player,CG,1,7,2,10,6.5,13,0,C,0,C,NA,1,1,24,Female
1,12,2-player,CG,1,6,9,6,6.5,58.5,0,C,0,C,NA,1,1,24,Female
1,12,2-player,CG,1,7,1,10,6.5,6.5,0,C,0,C,NA,1,1,24,Female
1,12,2-player,CG,1,7,10,10,6.5,65,0,C,0,C,NA,1,1,24,Female
1,12,2-player,CG,1,7,28,10,6.5,169,0,C,0,C,NA,1,1,24,Female
1,12,2-player,CG,1,7,9,10,6.5,58.5,0,C,0,C,NA,1,1,24,Female
1,12,2-player,CG,1,7,5,10,6.5,32.5,0,C,0,C,NA,1,1,24,Female
1,12,2-player,CG,1,1,4,5,6.5,26,0,C,0,C,NA,1,1,24,Female
1,12,2-player,CG,1,4,7,2,6.5,45.5,0,C,0,C,NA,1,1,24,Female
1,12,2-player,CG,1,7,36,10,6.5,221,0,C,0,C,NA,1,1,24,Female
1,12,2-player,CG,1,4,6,2,6.5,39,0,C,0,C,NA,1,1,24,Female
1,12,2-player,CG,1,7,12,10,6.5,78,0,C,0,C,NA,1,1,24,Female
1,12,2-player,CG,1,6,10,6,5,63.5,0,nC,0,C,NA,4,2,24,Female
1,12,2-player,CG,1,7,11,10,6.5,71.5,0,C,0,C,NA,1,1,24,Female
1,12,2-player,CG,1,7,34,10,6.5,208,0,C,0,C,NA,1,1,24,Female
1,12,2-player,CG,1,1,1,5,6.5,6.5,0,C,0,C,NA,1,1,24,Female
1,12,2-player,CG,1,4,9,2,6.5,58.5,0,C,0,C,NA,1,1,24,Female
1,12,2-player,CG,1,7,6,10,6.5,39,0,C,0,C,NA,1,1,24,Female
1,12,2-player,CG,1,7,14,10,2,85,0,nC,0,nC,NA,6,4,24,Female
1,12,2-player,CG,1,6,4,6,6.5,26,0,C,0,C,NA,1,1,24,Female
1,12,2-player,CG,1,2,13,10,6.5,84.5,0,C,0,C,NA,1,1,24,Female
1,12,2-player,CG,1,7,18,10,6.5,104,0,C,0,C,NA,1,1,24,Female
1,12,2-player,CG,1,7,13,10,5,83,0,nC,0,C,NA,4,2,24,Female
1,12,2-player,CG,1,7,17,10,6.5,97.5,0,C,0,C,NA,1,1,24,Female
1,12,2-player,CG,1,7,22,10,6.5,130,0,C,0,C,NA,1,1,24,Female
1,12,2-player,CG,1,7,35,10,6.5,214.5,0,C,0,C,NA,1,1,24,Female
1,12,2-player,CG,1,7,21,10,6.5,123.5,0,C,0,C,NA,1,1,24,Female
1,12,2-player,CG,1,3,1,2,6.5,6.5,0,C,0,C,NA,1,1,24,Female
1,12,2-player,CG,1,2,10,10,6.5,65,0,C,0,C,NA,1,1,24,Female
1,12,2-player,CG,1,7,15,10,-0.5,84.5,0,C,0,nC,NA,2,2,24,Female
1,12,2-player,CG,1,6,5,6,6.5,32.5,0,C,0,C,NA,1,1,24,Female
1,12,2-player,CG,1,1,5,5,6.5,32.5,0,C,0,C,NA,1,1,24,Female
1,12,2-player,CG,1,4,8,2,6.5,52,0,C,0,C,NA,1,1,24,Female
1,12,2-player,CG,1,7,37,10,6.5,227.5,0,C,0,C,NA,1,1,24,Female
1,12,2-player,CG,1,5,1,11,6.5,6.5,0,C,0,C,NA,1,1,24,Female
1,12,2-player,CG,1,7,23,10,6.5,136.5,0,C,0,C,NA,1,1,24,Female
1,12,2-player,CG,1,4,11,2,6.5,71.5,0,C,0,C,NA,1,1,24,Female
1,12,2-player,CG,1,2,3,10,6.5,19.5,0,C,0,C,NA,1,1,24,Female
1,12,2-player,CG,1,3,2,2,6.5,13,0,C,0,C,NA,1,1,24,Female
1,12,2-player,CG,1,1,2,5,6.5,13,0,C,0,C,NA,1,1,24,Female
1,12,2-player,CG,1,4,10,2,6.5,65,0,C,0,C,NA,1,1,24,Female
1,12,2-player,CG,1,7,7,10,6.5,45.5,0,C,0,C,NA,1,1,24,Female
1,12,2-player,CG,1,2,1,10,6.5,6.5,0,C,0,C,NA,1,1,24,Female
1,12,2-player,CG,1,7,20,10,6.5,117,0,C,0,C,NA,1,1,24,Female
1,12,2-player,CG,1,2,14,10,6.5,91,0,C,0,C,NA,1,1,24,Female
1,12,2-player,CG,1,7,19,10,6.5,110.5,0,C,0,C,NA,1,1,24,Female
1,12,2-player,CG,1,3,4,2,6.5,26,0,C,0,C,NA,1,1,24,Female
1,12,2-player,CG,1,5,6,11,6.5,39,0,C,0,C,NA,1,1,24,Female
1,12,2-player,CG,1,2,4,10,6.5,26,0,C,0,C,NA,1,1,24,Female
1,12,2-player,CG,1,5,5,11,6.5,32.5,0,C,0,C,NA,1,1,24,Female
1,12,2-player,CG,1,2,12,10,6.5,78,0,C,0,C,NA,1,1,24,Female
1,12,2-player,CG,1,4,2,2,6.5,13,0,C,0,C,NA,1,1,24,Female
1,12,2-player,CG,1,2,11,10,6.5,71.5,0,C,0,C,NA,1,1,24,Female
1,12,2-player,CG,1,4,1,2,6.5,6.5,0,C,0,C,NA,1,1,24,Female
1,12,2-player,CG,1,5,4,11,6.5,26,0,C,0,C,NA,1,1,24,Female
1,12,2-player,CG,1,2,6,10,6.5,39,0,C,0,C,NA,1,1,24,Female
1,12,2-player,CG,1,5,3,11,6.5,19.5,0,C,0,C,NA,1,1,24,Female
1,12,2-player,CG,1,2,5,10,6.5,32.5,0,C,0,C,NA,1,1,24,Female
1,12,2-player,CG,1,5,2,11,6.5,13,0,C,0,C,NA,1,1,24,Female
1,12,2-player,CG,1,4,4,2,6.5,26,0,C,0,C,NA,1,1,24,Female
1,12,2-player,CG,1,2,9,10,6.5,58.5,0,C,0,C,NA,1,1,24,Female
1,12,2-player,CG,1,3,3,2,6.5,19.5,0,C,0,C,NA,1,1,24,Female
1,12,2-player,CG,1,2,8,10,6.5,52,0,C,0,C,NA,1,1,24,Female
1,12,2-player,CG,1,7,8,10,6.5,52,0,C,0,C,NA,1,1,24,Female
1,12,2-player,CG,1,2,2,10,6.5,13,0,C,0,C,NA,1,1,24,Female
1,12,2-player,CG,1,6,3,6,6.5,19.5,0,C,0,C,NA,1,1,24,Female
1,12,2-player,CG,1,6,2,6,6.5,13,0,C,0,C,NA,1,1,24,Female
1,12,2-player,CG,1,3,5,2,6.5,32.5,0,C,0,C,NA,1,1,24,Female
1,12,2-player,CG,1,6,1,6,6.5,6.5,0,C,0,C,NA,1,1,24,Female
1,12,2-player,CG,1,4,3,2,6.5,19.5,0,C,0,C,NA,1,1,24,Female
1,12,2-player,CG,1,2,7,10,6.5,45.5,0,C,0,C,NA,1,1,24,Female
1,12,2-player,CG,1,4,5,2,6.5,32.5,0,C,0,C,NA,1,1,24,Female
1,13,2-player,CG,1,7,9,12,6.5,58.5,0,C,0,C,NA,1,1,24,Male
1,13,2-player,CG,1,7,26,12,6.5,169,0,C,0,C,NA,1,1,24,Male
1,13,2-player,CG,1,7,11,12,6.5,71.5,0,C,0,C,NA,1,1,24,Male
1,13,2-player,CG,1,6,8,10,6.5,52,0,C,0,C,NA,1,1,24,Male
1,13,2-player,CG,1,7,14,12,6.5,91,0,C,0,C,NA,1,1,24,Male
1,13,2-player,CG,1,6,7,10,6.5,45.5,0,C,0,C,NA,1,1,24,Male
1,13,2-player,CG,1,6,6,10,6.5,39,0,C,0,C,NA,1,1,24,Male
1,13,2-player,CG,1,7,31,12,6.5,201.5,0,C,0,C,NA,1,1,24,Male
1,13,2-player,CG,1,4,6,1,6.5,39,0,C,0,C,NA,1,1,24,Male
1,13,2-player,CG,1,7,25,12,6.5,162.5,0,C,0,C,NA,1,1,24,Male
1,13,2-player,CG,1,7,16,12,6.5,104,0,C,0,C,NA,1,1,24,Male
1,13,2-player,CG,1,7,24,12,6.5,156,0,C,0,C,NA,1,1,24,Male
1,13,2-player,CG,1,7,10,12,6.5,65,0,C,0,C,NA,1,1,24,Male
1,13,2-player,CG,1,7,1,12,6.5,6.5,0,C,0,C,NA,1,1,24,Male
1,13,2-player,CG,1,7,28,12,6.5,182,0,C,0,C,NA,1,1,24,Male
1,13,2-player,CG,1,6,12,10,6.5,78,0,C,0,C,NA,1,1,24,Male
1,13,2-player,CG,1,7,27,12,6.5,175.5,0,C,0,C,NA,1,1,24,Male
1,13,2-player,CG,1,6,11,10,6.5,71.5,0,C,0,C,NA,1,1,24,Male
1,13,2-player,CG,1,7,13,12,6.5,84.5,0,C,0,C,NA,1,1,24,Male
1,13,2-player,CG,1,7,22,12,6.5,143,0,C,0,C,NA,1,1,24,Male
1,13,2-player,CG,1,7,12,12,6.5,78,0,C,0,C,NA,1,1,24,Male
1,13,2-player,CG,1,7,21,12,6.5,136.5,0,C,0,C,NA,1,1,24,Male
1,13,2-player,CG,1,6,10,10,6.5,65,0,C,0,C,NA,1,1,24,Male
1,13,2-player,CG,1,7,29,12,6.5,188.5,0,C,0,C,NA,1,1,24,Male
1,13,2-player,CG,1,6,9,10,6.5,58.5,0,C,0,C,NA,1,1,24,Male
1,13,2-player,CG,1,7,15,12,6.5,97.5,0,C,0,C,NA,1,1,24,Male
1,13,2-player,CG,1,2,14,1,6.5,91,0,C,0,C,NA,1,1,24,Male
1,13,2-player,CG,1,7,19,12,6.5,123.5,0,C,0,C,NA,1,1,24,Male
1,13,2-player,CG,1,2,13,1,6.5,84.5,0,C,0,C,NA,1,1,24,Male
1,13,2-player,CG,1,7,32,12,6.5,208,0,C,0,C,NA,1,1,24,Male
1,13,2-player,CG,1,4,7,1,6.5,45.5,0,C,0,C,NA,1,1,24,Male
1,13,2-player,CG,1,7,4,12,6.5,26,0,C,0,C,NA,1,1,24,Male
1,13,2-player,CG,1,7,36,12,6.5,234,0,C,0,C,NA,1,1,24,Male
1,13,2-player,CG,1,7,17,12,6.5,110.5,0,C,0,C,NA,1,1,24,Male
1,13,2-player,CG,1,7,30,12,6.5,195,0,C,0,C,NA,1,1,24,Male
1,13,2-player,CG,1,7,3,12,6.5,19.5,0,C,0,C,NA,1,1,24,Male
1,13,2-player,CG,1,2,10,1,6.5,65,0,C,0,C,NA,1,1,24,Male
1,13,2-player,CG,1,7,2,12,6.5,13,0,C,0,C,NA,1,1,24,Male
1,13,2-player,CG,1,1,1,4,6.5,6.5,0,C,0,C,NA,1,1,24,Male
1,13,2-player,CG,1,7,6,12,6.5,39,0,C,0,C,NA,1,1,24,Male
1,13,2-player,CG,1,7,33,12,6.5,214.5,0,C,0,C,NA,1,1,24,Male
1,13,2-player,CG,1,6,4,10,6.5,26,0,C,0,C,NA,1,1,24,Male
1,13,2-player,CG,1,3,4,4,6.5,26,0,C,0,C,NA,1,1,24,Male
1,13,2-player,CG,1,7,23,12,6.5,149.5,0,C,0,C,NA,1,1,24,Male
1,13,2-player,CG,1,7,18,12,6.5,117,0,C,0,C,NA,1,1,24,Male
1,13,2-player,CG,1,2,12,1,6.5,78,0,C,0,C,NA,1,1,24,Male
1,13,2-player,CG,1,1,3,4,6.5,19.5,0,C,0,C,NA,1,1,24,Male
1,13,2-player,CG,1,2,11,1,6.5,71.5,0,C,0,C,NA,1,1,24,Male
1,13,2-player,CG,1,3,2,4,6.5,13,0,C,0,C,NA,1,1,24,Male
1,13,2-player,CG,1,4,1,1,6.5,6.5,0,C,0,C,NA,1,1,24,Male
1,13,2-player,CG,1,3,1,4,6.5,6.5,0,C,0,C,NA,1,1,24,Male
1,13,2-player,CG,1,7,20,12,6.5,130,0,C,0,C,NA,1,1,24,Male
1,13,2-player,CG,1,6,5,10,6.5,32.5,0,C,0,C,NA,1,1,24,Male
1,13,2-player,CG,1,3,5,4,6.5,32.5,0,C,0,C,NA,1,1,24,Male
1,13,2-player,CG,1,4,8,1,6.5,52,0,C,0,C,NA,1,1,24,Male
1,13,2-player,CG,1,7,5,12,6.5,32.5,0,C,0,C,NA,1,1,24,Male
1,13,2-player,CG,1,7,37,12,6.5,240.5,0,C,0,C,NA,1,1,24,Male
1,13,2-player,CG,1,1,4,4,6.5,26,0,C,0,C,NA,1,1,24,Male
1,13,2-player,CG,1,4,3,1,6.5,19.5,0,C,0,C,NA,1,1,24,Male
1,13,2-player,CG,1,5,5,3,6.5,32.5,0,C,0,C,NA,1,1,24,Male
1,13,2-player,CG,1,4,2,1,6.5,13,0,C,0,C,NA,1,1,24,Male
1,13,2-player,CG,1,7,8,12,6.5,52,0,C,0,C,NA,1,1,24,Male
1,13,2-player,CG,1,1,2,4,6.5,13,0,C,0,C,NA,1,1,24,Male
1,13,2-player,CG,1,7,7,12,6.5,45.5,0,C,0,C,NA,1,1,24,Male
1,13,2-player,CG,1,7,34,12,6.5,221,0,C,0,C,NA,1,1,24,Male
1,13,2-player,CG,1,4,9,1,6.5,58.5,0,C,0,C,NA,1,1,24,Male
1,13,2-player,CG,1,4,5,1,6.5,32.5,0,C,0,C,NA,1,1,24,Male
1,13,2-player,CG,1,2,5,1,6.5,32.5,0,C,0,C,NA,1,1,24,Male
1,13,2-player,CG,1,4,4,1,6.5,26,0,C,0,C,NA,1,1,24,Male
1,13,2-player,CG,1,5,2,3,6.5,13,0,C,0,C,NA,1,1,24,Male
1,13,2-player,CG,1,5,6,3,6.5,39,0,C,0,C,NA,1,1,24,Male
1,13,2-player,CG,1,5,1,3,6.5,6.5,0,C,0,C,NA,1,1,24,Male
1,13,2-player,CG,1,3,3,4,6.5,19.5,0,C,0,C,NA,1,1,24,Male
1,13,2-player,CG,1,4,11,1,6.5,71.5,0,C,0,C,NA,1,1,24,Male
1,13,2-player,CG,1,2,3,1,6.5,19.5,0,C,0,C,NA,1,1,24,Male
1,13,2-player,CG,1,7,35,12,6.5,227.5,0,C,0,C,NA,1,1,24,Male
1,13,2-player,CG,1,4,10,1,6.5,65,0,C,0,C,NA,1,1,24,Male
1,13,2-player,CG,1,2,2,1,6.5,13,0,C,0,C,NA,1,1,24,Male
1,13,2-player,CG,1,2,6,1,6.5,39,0,C,0,C,NA,1,1,24,Male
1,13,2-player,CG,1,2,1,1,6.5,6.5,0,C,0,C,NA,1,1,24,Male
1,13,2-player,CG,1,5,3,3,6.5,19.5,0,C,0,C,NA,1,1,24,Male
1,13,2-player,CG,1,1,5,4,6.5,32.5,0,C,0,C,NA,1,1,24,Male
1,13,2-player,CG,1,2,8,1,6.5,52,0,C,0,C,NA,1,1,24,Male
1,13,2-player,CG,1,5,4,3,6.5,26,0,C,0,C,NA,1,1,24,Male
1,13,2-player,CG,1,2,9,1,6.5,58.5,0,C,0,C,NA,1,1,24,Male
1,13,2-player,CG,1,2,4,1,6.5,26,0,C,0,C,NA,1,1,24,Male
1,13,2-player,CG,1,6,3,10,6.5,19.5,0,C,0,C,NA,1,1,24,Male
1,13,2-player,CG,1,6,2,10,6.5,13,0,C,0,C,NA,1,1,24,Male
1,13,2-player,CG,1,2,7,1,6.5,45.5,0,C,0,C,NA,1,1,24,Male
1,13,2-player,CG,1,6,1,10,6.5,6.5,0,C,0,C,NA,1,1,24,Male
1,14,2-player,CG,1,3,4,7,6.5,26,0,C,0,C,NA,1,1,20,Female
1,14,2-player,CG,1,7,4,6,6.5,26,0,C,0,C,NA,1,1,20,Female
1,14,2-player,CG,1,7,36,6,6.5,234,0,C,0,C,NA,1,1,20,Female
1,14,2-player,CG,1,7,34,6,6.5,221,0,C,0,C,NA,1,1,20,Female
1,14,2-player,CG,1,6,4,4,6.5,26,0,C,0,C,NA,1,1,20,Female
1,14,2-player,CG,1,1,5,7,6.5,32.5,0,C,0,C,NA,1,1,20,Female
1,14,2-player,CG,1,7,6,6,6.5,39,0,C,0,C,NA,1,1,20,Female
1,14,2-player,CG,1,1,4,7,6.5,26,0,C,0,C,NA,1,1,20,Female
1,14,2-player,CG,1,7,5,6,6.5,32.5,0,C,0,C,NA,1,1,20,Female
1,14,2-player,CG,1,1,3,7,6.5,19.5,0,C,0,C,NA,1,1,20,Female
1,14,2-player,CG,1,4,11,3,6.5,71.5,0,C,0,C,NA,1,1,20,Female
1,14,2-player,CG,1,6,7,4,6.5,45.5,0,C,0,C,NA,1,1,20,Female
1,14,2-player,CG,1,6,11,4,6.5,71.5,0,C,0,C,NA,1,1,20,Female
1,14,2-player,CG,1,6,6,4,6.5,39,0,C,0,C,NA,1,1,20,Female
1,14,2-player,CG,1,3,1,7,6.5,6.5,0,C,0,C,NA,1,1,20,Female
1,14,2-player,CG,1,1,1,7,6.5,6.5,0,C,0,C,NA,1,1,20,Female
1,14,2-player,CG,1,6,5,4,6.5,32.5,0,C,0,C,NA,1,1,20,Female
1,14,2-player,CG,1,3,5,7,6.5,32.5,0,C,0,C,NA,1,1,20,Female
1,14,2-player,CG,1,7,20,6,6.5,130,0,C,0,C,NA,1,1,20,Female
1,14,2-player,CG,1,7,24,6,6.5,156,0,C,0,C,NA,1,1,20,Female
1,14,2-player,CG,1,7,19,6,6.5,123.5,0,C,0,C,NA,1,1,20,Female
1,14,2-player,CG,1,5,1,12,6.5,6.5,0,C,0,C,NA,1,1,20,Female
1,14,2-player,CG,1,7,37,6,6.5,240.5,0,C,0,C,NA,1,1,20,Female
1,14,2-player,CG,1,6,12,4,6.5,78,0,C,0,C,NA,1,1,20,Female
1,14,2-player,CG,1,2,3,10,6.5,19.5,0,C,0,C,NA,1,1,20,Female
1,14,2-player,CG,1,3,2,7,6.5,13,0,C,0,C,NA,1,1,20,Female
1,14,2-player,CG,1,1,2,7,6.5,13,0,C,0,C,NA,1,1,20,Female
1,14,2-player,CG,1,7,35,6,6.5,227.5,0,C,0,C,NA,1,1,20,Female
1,14,2-player,CG,1,7,21,6,6.5,136.5,0,C,0,C,NA,1,1,20,Female
1,14,2-player,CG,1,2,1,10,6.5,6.5,0,C,0,C,NA,1,1,20,Female
1,14,2-player,CG,1,7,7,6,6.5,45.5,0,C,0,C,NA,1,1,20,Female
1,14,2-player,CG,1,7,29,6,6.5,188.5,0,C,0,C,NA,1,1,20,Female
1,14,2-player,CG,1,5,2,12,6.5,13,0,C,0,C,NA,1,1,20,Female
1,14,2-player,CG,1,4,4,3,6.5,26,0,C,0,C,NA,1,1,20,Female
1,14,2-player,CG,1,2,13,10,6.5,84.5,0,C,0,C,NA,1,1,20,Female
1,14,2-player,CG,1,6,8,4,6.5,52,0,C,0,C,NA,1,1,20,Female
1,14,2-player,CG,1,3,3,7,6.5,19.5,0,C,0,C,NA,1,1,20,Female
1,14,2-player,CG,1,7,23,6,6.5,149.5,0,C,0,C,NA,1,1,20,Female
1,14,2-player,CG,1,4,6,3,6.5,39,0,C,0,C,NA,1,1,20,Female
1,14,2-player,CG,1,7,22,6,6.5,143,0,C,0,C,NA,1,1,20,Female
1,14,2-player,CG,1,7,26,6,6.5,169,0,C,0,C,NA,1,1,20,Female
1,14,2-player,CG,1,4,1,3,6.5,6.5,0,C,0,C,NA,1,1,20,Female
1,14,2-player,CG,1,2,10,10,6.5,65,0,C,0,C,NA,1,1,20,Female
1,14,2-player,CG,1,7,25,6,6.5,162.5,0,C,0,C,NA,1,1,20,Female
1,14,2-player,CG,1,4,5,3,6.5,32.5,0,C,0,C,NA,1,1,20,Female
1,14,2-player,CG,1,2,14,10,6.5,91,0,C,0,C,NA,1,1,20,Female
1,14,2-player,CG,1,4,8,3,6.5,52,0,C,0,C,NA,1,1,20,Female
1,14,2-player,CG,1,7,1,6,6.5,6.5,0,C,0,C,NA,1,1,20,Female
1,14,2-player,CG,1,2,4,10,6.5,26,0,C,0,C,NA,1,1,20,Female
1,14,2-player,CG,1,4,7,3,6.5,45.5,0,C,0,C,NA,1,1,20,Female
1,14,2-player,CG,1,7,32,6,6.5,208,0,C,0,C,NA,1,1,20,Female
1,14,2-player,CG,1,7,27,6,6.5,175.5,0,C,0,C,NA,1,1,20,Female
1,14,2-player,CG,1,7,31,6,6.5,201.5,0,C,0,C,NA,1,1,20,Female
1,14,2-player,CG,1,2,2,10,6.5,13,0,C,0,C,NA,1,1,20,Female
1,14,2-player,CG,1,7,8,6,6.5,52,0,C,0,C,NA,1,1,20,Female
1,14,2-player,CG,1,7,30,6,6.5,195,0,C,0,C,NA,1,1,20,Female
1,14,2-player,CG,1,5,3,12,6.5,19.5,0,C,0,C,NA,1,1,20,Female
1,14,2-player,CG,1,4,9,3,6.5,58.5,0,C,0,C,NA,1,1,20,Female
1,14,2-player,CG,1,7,2,6,6.5,13,0,C,0,C,NA,1,1,20,Female
1,14,2-player,CG,1,6,9,4,6.5,58.5,0,C,0,C,NA,1,1,20,Female
1,14,2-player,CG,1,7,15,6,6.5,97.5,0,C,0,C,NA,1,1,20,Female
1,14,2-player,CG,1,7,33,6,6.5,214.5,0,C,0,C,NA,1,1,20,Female
1,14,2-player,CG,1,7,14,6,6.5,91,0,C,0,C,NA,1,1,20,Female
1,14,2-player,CG,1,7,9,6,6.5,58.5,0,C,0,C,NA,1,1,20,Female
1,14,2-player,CG,1,5,5,12,6.5,32.5,0,C,0,C,NA,1,1,20,Female
1,14,2-player,CG,1,4,2,3,6.5,13,0,C,0,C,NA,1,1,20,Female
1,14,2-player,CG,1,2,11,10,6.5,71.5,0,C,0,C,NA,1,1,20,Female
1,14,2-player,CG,1,5,4,12,6.5,26,0,C,0,C,NA,1,1,20,Female
1,14,2-player,CG,1,4,10,3,6.5,65,0,C,0,C,NA,1,1,20,Female
1,14,2-player,CG,1,7,3,6,6.5,19.5,0,C,0,C,NA,1,1,20,Female
1,14,2-player,CG,1,7,16,6,6.5,104,0,C,0,C,NA,1,1,20,Female
1,14,2-player,CG,1,7,11,6,6.5,71.5,0,C,0,C,NA,1,1,20,Female
1,14,2-player,CG,1,2,5,10,6.5,32.5,0,C,0,C,NA,1,1,20,Female
1,14,2-player,CG,1,6,1,4,6.5,6.5,0,C,0,C,NA,1,1,20,Female
1,14,2-player,CG,1,7,10,6,6.5,65,0,C,0,C,NA,1,1,20,Female
1,14,2-player,CG,1,7,28,6,6.5,182,0,C,0,C,NA,1,1,20,Female
1,14,2-player,CG,1,4,3,3,6.5,19.5,0,C,0,C,NA,1,1,20,Female
1,14,2-player,CG,1,2,12,10,6.5,78,0,C,0,C,NA,1,1,20,Female
1,14,2-player,CG,1,2,8,10,6.5,52,0,C,0,C,NA,1,1,20,Female
1,14,2-player,CG,1,7,18,6,6.5,117,0,C,0,C,NA,1,1,20,Female
1,14,2-player,CG,1,7,13,6,6.5,84.5,0,C,0,C,NA,1,1,20,Female
1,14,2-player,CG,1,7,17,6,6.5,110.5,0,C,0,C,NA,1,1,20,Female
1,14,2-player,CG,1,7,12,6,6.5,78,0,C,0,C,NA,1,1,20,Female
1,14,2-player,CG,1,6,10,4,6.5,65,0,C,0,C,NA,1,1,20,Female
1,14,2-player,CG,1,6,2,4,6.5,13,0,C,0,C,NA,1,1,20,Female
1,14,2-player,CG,1,2,9,10,6.5,58.5,0,C,0,C,NA,1,1,20,Female
1,14,2-player,CG,1,2,7,10,6.5,45.5,0,C,0,C,NA,1,1,20,Female
1,14,2-player,CG,1,6,3,4,6.5,19.5,0,C,0,C,NA,1,1,20,Female
1,14,2-player,CG,1,5,6,12,6.5,39,0,C,0,C,NA,1,1,20,Female
1,14,2-player,CG,1,2,6,10,6.5,39,0,C,0,C,NA,1,1,20,Female
1,15,2-player,CG,1,6,5,9,6.5,32.5,0,C,0,C,NA,1,1,29,Female
1,15,2-player,CG,1,7,24,1,6.5,156,0,C,0,C,NA,1,1,29,Female
1,15,2-player,CG,1,6,4,9,6.5,26,0,C,0,C,NA,1,1,29,Female
1,15,2-player,CG,1,7,4,1,6.5,26,0,C,0,C,NA,1,1,29,Female
1,15,2-player,CG,1,1,4,6,6.5,26,0,C,0,C,NA,1,1,29,Female
1,15,2-player,CG,1,2,3,9,5,9.5,0,nC,0,C,NA,4,2,29,Female
1,15,2-player,CG,1,1,3,6,6.5,19.5,0,C,0,C,NA,1,1,29,Female
1,15,2-player,CG,1,7,25,1,6.5,162.5,0,C,0,C,NA,1,1,29,Female
1,15,2-player,CG,1,1,1,6,6.5,6.5,0,C,0,C,NA,1,1,29,Female
1,15,2-player,CG,1,1,5,6,6.5,32.5,0,C,0,C,NA,1,1,29,Female
1,15,2-player,CG,1,6,9,9,6.5,58.5,0,C,0,C,NA,1,1,29,Female
1,15,2-player,CG,1,4,4,5,6.5,26,0,C,0,C,NA,1,1,29,Female
1,15,2-player,CG,1,2,4,9,-0.5,9,0,C,0,nC,NA,2,2,29,Female
1,15,2-player,CG,1,7,19,1,6.5,123.5,0,C,0,C,NA,1,1,29,Female
1,15,2-player,CG,1,7,5,1,6.5,32.5,0,C,0,C,NA,1,1,29,Female
1,15,2-player,CG,1,7,27,1,6.5,175.5,0,C,0,C,NA,1,1,29,Female
1,15,2-player,CG,1,6,7,9,6.5,45.5,0,C,0,C,NA,1,1,29,Female
1,15,2-player,CG,1,7,26,1,6.5,169,0,C,0,C,NA,1,1,29,Female
1,15,2-player,CG,1,6,6,9,6.5,39,0,C,0,C,NA,1,1,29,Female
1,15,2-player,CG,1,4,1,5,6.5,6.5,0,C,0,C,NA,1,1,29,Female
1,15,2-player,CG,1,2,1,9,-0.5,-0.5,0,C,0,nC,NA,2,2,29,Female
1,15,2-player,CG,1,7,21,1,6.5,136.5,0,C,0,C,NA,1,1,29,Female
1,15,2-player,CG,1,7,34,1,6.5,221,0,C,0,C,NA,1,1,29,Female
1,15,2-player,CG,1,2,5,9,2,11,0,nC,0,nC,NA,6,4,29,Female
1,15,2-player,CG,1,5,2,6,6.5,13,0,C,0,C,NA,1,1,29,Female
1,15,2-player,CG,1,3,4,2,6.5,26,0,C,0,C,NA,1,1,29,Female
1,15,2-player,CG,1,7,28,1,6.5,182,0,C,0,C,NA,1,1,29,Female
1,15,2-player,CG,1,6,8,9,6.5,52,0,C,0,C,NA,1,1,29,Female
1,15,2-player,CG,1,5,5,6,6.5,32.5,0,C,0,C,NA,1,1,29,Female
1,15,2-player,CG,1,4,11,5,6.5,71.5,0,C,0,C,NA,1,1,29,Female
1,15,2-player,CG,1,7,36,1,6.5,234,0,C,0,C,NA,1,1,29,Female
1,15,2-player,CG,1,6,11,9,6.5,71.5,0,C,0,C,NA,1,1,29,Female
1,15,2-player,CG,1,1,2,6,6.5,13,0,C,0,C,NA,1,1,29,Female
1,15,2-player,CG,1,3,1,2,6.5,6.5,0,C,0,C,NA,1,1,29,Female
1,15,2-player,CG,1,6,10,9,6.5,65,0,C,0,C,NA,1,1,29,Female
1,15,2-player,CG,1,4,5,5,6.5,32.5,0,C,0,C,NA,1,1,29,Female
1,15,2-player,CG,1,3,5,2,6.5,32.5,0,C,0,C,NA,1,1,29,Female
1,15,2-player,CG,1,7,20,1,6.5,130,0,C,0,C,NA,1,1,29,Female
1,15,2-player,CG,1,7,6,1,6.5,39,0,C,0,C,NA,1,1,29,Female
1,15,2-player,CG,1,5,6,6,6.5,39,0,C,0,C,NA,1,1,29,Female
1,15,2-player,CG,1,5,1,6,6.5,6.5,0,C,0,C,NA,1,1,29,Female
1,15,2-player,CG,1,7,37,1,6.5,240.5,0,C,0,C,NA,1,1,29,Female
1,15,2-player,CG,1,6,12,9,6.5,78,0,C,0,C,NA,1,1,29,Female
1,15,2-player,CG,1,4,2,5,6.5,13,0,C,0,C,NA,1,1,29,Female
1,15,2-player,CG,1,2,2,9,5,4.5,0,nC,0,C,NA,4,2,29,Female
1,15,2-player,CG,1,7,22,1,6.5,143,0,C,0,C,NA,1,1,29,Female
1,15,2-player,CG,1,7,35,1,6.5,227.5,0,C,0,C,NA,1,1,29,Female
1,15,2-player,CG,1,2,6,9,2.5,13.5,6,nC,0,E,NA,8,5,29,Female
1,15,2-player,CG,1,5,3,6,6.5,19.5,0,C,0,C,NA,1,1,29,Female
1,15,2-player,CG,1,7,7,1,6.5,45.5,0,C,0,C,NA,1,1,29,Female
1,15,2-player,CG,1,7,29,1,6.5,188.5,0,C,0,C,NA,1,1,29,Female
1,15,2-player,CG,1,2,14,9,2.5,33.5,6,E-,0,E-,NA,9,6,29,Female
1,15,2-player,CG,1,4,8,5,6.5,52,0,C,0,C,NA,1,1,29,Female
1,15,2-player,CG,1,2,13,9,2.5,31,6,E-,0,E-,NA,9,6,29,Female
1,15,2-player,CG,1,7,9,1,6.5,58.5,0,C,0,C,NA,1,1,29,Female
1,15,2-player,CG,1,2,8,9,2.5,18.5,6,E-,0,E-,NA,9,6,29,Female
1,15,2-player,CG,1,7,23,1,6.5,149.5,0,C,0,C,NA,1,1,29,Female
1,15,2-player,CG,1,3,2,2,6.5,13,0,C,0,C,NA,1,1,29,Female
1,15,2-player,CG,1,7,31,1,6.5,201.5,0,C,0,C,NA,1,1,29,Female
1,15,2-player,CG,1,5,4,6,6.5,26,0,C,0,C,NA,1,1,29,Female
1,15,2-player,CG,1,7,8,1,6.5,52,0,C,0,C,NA,1,1,29,Female
1,15,2-player,CG,1,2,10,9,2.5,23.5,6,E-,0,E-,NA,9,6,29,Female
1,15,2-player,CG,1,7,11,1,6.5,71.5,0,C,0,C,NA,1,1,29,Female
1,15,2-player,CG,1,6,1,9,6.5,6.5,0,C,0,C,NA,1,1,29,Female
1,15,2-player,CG,1,7,2,1,6.5,13,0,C,0,C,NA,1,1,29,Female
1,15,2-player,CG,1,7,10,1,6.5,65,0,C,0,C,NA,1,1,29,Female
1,15,2-player,CG,1,7,1,1,6.5,6.5,0,C,0,C,NA,1,1,29,Female
1,15,2-player,CG,1,4,3,5,6.5,19.5,0,C,0,C,NA,1,1,29,Female
1,15,2-player,CG,1,3,3,2,6.5,19.5,0,C,0,C,NA,1,1,29,Female
1,15,2-player,CG,1,7,32,1,6.5,208,0,C,0,C,NA,1,1,29,Female
1,15,2-player,CG,1,4,6,5,6.5,39,0,C,0,C,NA,1,1,29,Female
1,15,2-player,CG,1,2,7,9,2.5,16,6,E-,0,E-,NA,9,6,29,Female
1,15,2-player,CG,1,2,11,9,2.5,26,6,E-,0,E-,NA,9,6,29,Female
1,15,2-player,CG,1,7,12,1,6.5,78,0,C,0,C,NA,1,1,29,Female
1,15,2-player,CG,1,7,30,1,6.5,195,0,C,0,C,NA,1,1,29,Female
1,15,2-player,CG,1,7,3,1,6.5,19.5,0,C,0,C,NA,1,1,29,Female
1,15,2-player,CG,1,4,9,5,6.5,58.5,0,C,0,C,NA,1,1,29,Female
1,15,2-player,CG,1,4,7,5,6.5,45.5,0,C,0,C,NA,1,1,29,Female
1,15,2-player,CG,1,7,14,1,6.5,91,0,C,0,C,NA,1,1,29,Female
1,15,2-player,CG,1,2,9,9,2.5,21,6,E-,0,E-,NA,9,6,29,Female
1,15,2-player,CG,1,7,33,1,6.5,214.5,0,C,0,C,NA,1,1,29,Female
1,15,2-player,CG,1,6,3,9,6.5,19.5,0,C,0,C,NA,1,1,29,Female
1,15,2-player,CG,1,7,18,1,6.5,117,0,C,0,C,NA,1,1,29,Female
1,15,2-player,CG,1,2,12,9,2.5,28.5,6,E-,0,E-,NA,9,6,29,Female
1,15,2-player,CG,1,7,13,1,6.5,84.5,0,C,0,C,NA,1,1,29,Female
1,15,2-player,CG,1,7,16,1,6.5,104,0,C,0,C,NA,1,1,29,Female
1,15,2-player,CG,1,6,2,9,6.5,13,0,C,0,C,NA,1,1,29,Female
1,15,2-player,CG,1,7,15,1,6.5,97.5,0,C,0,C,NA,1,1,29,Female
1,15,2-player,CG,1,7,17,1,6.5,110.5,0,C,0,C,NA,1,1,29,Female
1,15,2-player,CG,1,4,10,5,6.5,65,0,C,0,C,NA,1,1,29,Female
1,16,2-player,CG,1,7,24,7,6.5,156,0,C,0,C,NA,1,1,21,Female
1,16,2-player,CG,1,7,9,7,6.5,58.5,0,C,0,C,NA,1,1,21,Female
1,16,2-player,CG,1,7,2,7,6.5,13,0,C,0,C,NA,1,1,21,Female
1,16,2-player,CG,1,7,29,7,6.5,188.5,0,C,0,C,NA,1,1,21,Female
1,16,2-player,CG,1,7,26,7,6.5,169,0,C,0,C,NA,1,1,21,Female
1,16,2-player,CG,1,7,14,7,6.5,91,0,C,0,C,NA,1,1,21,Female
1,16,2-player,CG,1,7,30,7,6.5,195,0,C,0,C,NA,1,1,21,Female
1,16,2-player,CG,1,7,10,7,6.5,65,0,C,0,C,NA,1,1,21,Female
1,16,2-player,CG,1,7,11,7,6.5,71.5,0,C,0,C,NA,1,1,21,Female
1,16,2-player,CG,1,7,4,7,6.5,26,0,C,0,C,NA,1,1,21,Female
1,16,2-player,CG,1,7,32,7,6.5,208,0,C,0,C,NA,1,1,21,Female
1,16,2-player,CG,1,7,27,7,6.5,175.5,0,C,0,C,NA,1,1,21,Female
1,16,2-player,CG,1,7,25,7,6.5,162.5,0,C,0,C,NA,1,1,21,Female
1,16,2-player,CG,1,7,16,7,6.5,104,0,C,0,C,NA,1,1,21,Female
1,16,2-player,CG,1,2,5,5,6.5,32.5,0,C,0,C,NA,1,1,21,Female
1,16,2-player,CG,1,7,12,7,6.5,78,0,C,0,C,NA,1,1,21,Female
1,16,2-player,CG,1,6,4,3,6.5,26,0,C,0,C,NA,1,1,21,Female
1,16,2-player,CG,1,7,33,7,6.5,214.5,0,C,0,C,NA,1,1,21,Female
1,16,2-player,CG,1,7,28,7,6.5,182,0,C,0,C,NA,1,1,21,Female
1,16,2-player,CG,1,6,9,3,6.5,58.5,0,C,0,C,NA,1,1,21,Female
1,16,2-player,CG,1,2,3,5,6.5,19.5,0,C,0,C,NA,1,1,21,Female
1,16,2-player,CG,1,7,31,7,6.5,201.5,0,C,0,C,NA,1,1,21,Female
1,16,2-player,CG,1,7,13,7,6.5,84.5,0,C,0,C,NA,1,1,21,Female
1,16,2-player,CG,1,2,8,5,6.5,52,0,C,0,C,NA,1,1,21,Female
1,16,2-player,CG,1,6,6,3,6.5,39,0,C,0,C,NA,1,1,21,Female
1,16,2-player,CG,1,7,3,7,6.5,19.5,0,C,0,C,NA,1,1,21,Female
1,16,2-player,CG,1,6,10,3,6.5,65,0,C,0,C,NA,1,1,21,Female
1,16,2-player,CG,1,6,5,3,6.5,32.5,0,C,0,C,NA,1,1,21,Female
1,16,2-player,CG,1,1,5,9,6.5,32.5,0,C,0,C,NA,1,1,21,Female
1,16,2-player,CG,1,7,15,7,6.5,97.5,0,C,0,C,NA,1,1,21,Female
1,16,2-player,CG,1,2,9,5,6.5,58.5,0,C,0,C,NA,1,1,21,Female
1,16,2-player,CG,1,2,4,5,6.5,26,0,C,0,C,NA,1,1,21,Female
1,16,2-player,CG,1,1,4,9,6.5,26,0,C,0,C,NA,1,1,21,Female
1,16,2-player,CG,1,7,5,7,6.5,32.5,0,C,0,C,NA,1,1,21,Female
1,16,2-player,CG,1,1,3,9,6.5,19.5,0,C,0,C,NA,1,1,21,Female
1,16,2-player,CG,1,6,7,3,6.5,45.5,0,C,0,C,NA,1,1,21,Female
1,16,2-player,CG,1,6,11,3,6.5,71.5,0,C,0,C,NA,1,1,21,Female
1,16,2-player,CG,1,7,17,7,6.5,110.5,0,C,0,C,NA,1,1,21,Female
1,16,2-player,CG,1,2,6,5,6.5,39,0,C,0,C,NA,1,1,21,Female
1,16,2-player,CG,1,2,1,5,6.5,6.5,0,C,0,C,NA,1,1,21,Female
1,16,2-player,CG,1,1,1,9,6.5,6.5,0,C,0,C,NA,1,1,21,Female
1,16,2-player,CG,1,7,34,7,6.5,221,0,C,0,C,NA,1,1,21,Female
1,16,2-player,CG,1,4,9,10,6.5,58.5,0,C,0,C,NA,1,1,21,Female
1,16,2-player,CG,1,6,1,3,6.5,6.5,0,C,0,C,NA,1,1,21,Female
1,16,2-player,CG,1,4,4,10,6.5,26,0,C,0,C,NA,1,1,21,Female
1,16,2-player,CG,1,7,19,7,6.5,123.5,0,C,0,C,NA,1,1,21,Female
1,16,2-player,CG,1,2,13,5,6.5,84.5,0,C,0,C,NA,1,1,21,Female
1,16,2-player,CG,1,6,12,3,6.5,78,0,C,0,C,NA,1,1,21,Female
1,16,2-player,CG,1,5,5,11,6.5,32.5,0,C,0,C,NA,1,1,21,Female
1,16,2-player,CG,1,7,36,7,6.5,234,0,C,0,C,NA,1,1,21,Female
1,16,2-player,CG,1,4,6,10,6.5,39,0,C,0,C,NA,1,1,21,Female
1,16,2-player,CG,1,1,2,9,6.5,13,0,C,0,C,NA,1,1,21,Female
1,16,2-player,CG,1,4,1,10,6.5,6.5,0,C,0,C,NA,1,1,21,Female
1,16,2-player,CG,1,7,21,7,6.5,136.5,0,C,0,C,NA,1,1,21,Female
1,16,2-player,CG,1,2,10,5,6.5,65,0,C,0,C,NA,1,1,21,Female
1,16,2-player,CG,1,4,5,10,6.5,32.5,0,C,0,C,NA,1,1,21,Female
1,16,2-player,CG,1,7,20,7,6.5,130,0,C,0,C,NA,1,1,21,Female
1,16,2-player,CG,1,7,6,7,6.5,39,0,C,0,C,NA,1,1,21,Female
1,16,2-player,CG,1,7,1,7,6.5,6.5,0,C,0,C,NA,1,1,21,Female
1,16,2-player,CG,1,6,8,3,6.5,52,0,C,0,C,NA,1,1,21,Female
1,16,2-player,CG,1,7,37,7,6.5,240.5,0,C,0,C,NA,1,1,21,Female
1,16,2-player,CG,1,7,18,7,6.5,117,0,C,0,C,NA,1,1,21,Female
1,16,2-player,CG,1,2,7,5,6.5,45.5,0,C,0,C,NA,1,1,21,Female
1,16,2-player,CG,1,2,2,5,6.5,13,0,C,0,C,NA,1,1,21,Female
1,16,2-player,CG,1,7,22,7,6.5,143,0,C,0,C,NA,1,1,21,Female
1,16,2-player,CG,1,7,35,7,6.5,227.5,0,C,0,C,NA,1,1,21,Female
1,16,2-player,CG,1,4,10,10,6.5,65,0,C,0,C,NA,1,1,21,Female
1,16,2-player,CG,1,6,2,3,6.5,13,0,C,0,C,NA,1,1,21,Female
1,16,2-player,CG,1,7,7,7,6.5,45.5,0,C,0,C,NA,1,1,21,Female
1,16,2-player,CG,1,5,3,11,6.5,19.5,0,C,0,C,NA,1,1,21,Female
1,16,2-player,CG,1,2,14,5,6.5,91,0,C,0,C,NA,1,1,21,Female
1,16,2-player,CG,1,5,2,11,6.5,13,0,C,0,C,NA,1,1,21,Female
1,16,2-player,CG,1,5,6,11,6.5,39,0,C,0,C,NA,1,1,21,Female
1,16,2-player,CG,1,3,4,9,6.5,26,0,C,0,C,NA,1,1,21,Female
1,16,2-player,CG,1,4,7,10,6.5,45.5,0,C,0,C,NA,1,1,21,Female
1,16,2-player,CG,1,7,23,7,6.5,149.5,0,C,0,C,NA,1,1,21,Female
1,16,2-player,CG,1,4,2,10,6.5,13,0,C,0,C,NA,1,1,21,Female
1,16,2-player,CG,1,4,11,10,6.5,71.5,0,C,0,C,NA,1,1,21,Female
1,16,2-player,CG,1,2,11,5,6.5,71.5,0,C,0,C,NA,1,1,21,Female
1,16,2-player,CG,1,7,8,7,6.5,52,0,C,0,C,NA,1,1,21,Female
1,16,2-player,CG,1,3,1,9,6.5,6.5,0,C,0,C,NA,1,1,21,Female
1,16,2-player,CG,1,5,4,11,6.5,26,0,C,0,C,NA,1,1,21,Female
1,16,2-player,CG,1,4,8,10,6.5,52,0,C,0,C,NA,1,1,21,Female
1,16,2-player,CG,1,3,5,9,6.5,32.5,0,C,0,C,NA,1,1,21,Female
1,16,2-player,CG,1,5,1,11,6.5,6.5,0,C,0,C,NA,1,1,21,Female
1,16,2-player,CG,1,2,12,5,6.5,78,0,C,0,C,NA,1,1,21,Female
1,16,2-player,CG,1,4,3,10,6.5,19.5,0,C,0,C,NA,1,1,21,Female
1,16,2-player,CG,1,3,2,9,6.5,13,0,C,0,C,NA,1,1,21,Female
1,16,2-player,CG,1,6,3,3,6.5,19.5,0,C,0,C,NA,1,1,21,Female
1,16,2-player,CG,1,3,3,9,6.5,19.5,0,C,0,C,NA,1,1,21,Female
1,17,2-player,CG,1,7,14,11,6.5,91,0,C,0,C,NA,1,1,26,Male
1,17,2-player,CG,1,7,31,11,6.5,201.5,0,C,0,C,NA,1,1,26,Male
1,17,2-player,CG,1,7,29,11,6.5,188.5,0,C,0,C,NA,1,1,26,Male
1,17,2-player,CG,1,7,15,11,6.5,97.5,0,C,0,C,NA,1,1,26,Male
1,17,2-player,CG,1,7,16,11,6.5,104,0,C,0,C,NA,1,1,26,Male
1,17,2-player,CG,1,7,19,11,6.5,123.5,0,C,0,C,NA,1,1,26,Male
1,17,2-player,CG,1,7,32,11,6.5,208,0,C,0,C,NA,1,1,26,Male
1,17,2-player,CG,1,7,24,11,6.5,156,0,C,0,C,NA,1,1,26,Male
1,17,2-player,CG,1,7,36,11,6.5,234,0,C,0,C,NA,1,1,26,Male
1,17,2-player,CG,1,7,34,11,6.5,221,0,C,0,C,NA,1,1,26,Male
1,17,2-player,CG,1,7,17,11,6.5,110.5,0,C,0,C,NA,1,1,26,Male
1,17,2-player,CG,1,7,9,11,6.5,58.5,0,C,0,C,NA,1,1,26,Male
1,17,2-player,CG,1,7,21,11,6.5,136.5,0,C,0,C,NA,1,1,26,Male
1,17,2-player,CG,1,7,33,11,6.5,214.5,0,C,0,C,NA,1,1,26,Male
1,17,2-player,CG,1,1,1,3,-0.5,-0.5,0,C,0,nC,NA,2,2,26,Male
1,17,2-player,CG,1,7,26,11,6.5,169,0,C,0,C,NA,1,1,26,Male
1,17,2-player,CG,1,7,30,11,6.5,195,0,C,0,C,NA,1,1,26,Male
1,17,2-player,CG,1,7,18,11,6.5,117,0,C,0,C,NA,1,1,26,Male
1,17,2-player,CG,1,2,10,3,6.5,65,0,C,0,C,NA,1,1,26,Male
1,17,2-player,CG,1,7,11,11,6.5,71.5,0,C,0,C,NA,1,1,26,Male
1,17,2-player,CG,1,7,20,11,6.5,130,0,C,0,C,NA,1,1,26,Male
1,17,2-player,CG,1,1,2,3,2.5,2,2,E,1,C,NA,7,5,26,Male
1,17,2-player,CG,1,7,10,11,6.5,65,0,C,0,C,NA,1,1,26,Male
1,17,2-player,CG,1,2,13,3,6.5,84.5,0,C,0,C,NA,1,1,26,Male
1,17,2-player,CG,1,7,37,11,6.5,240.5,0,C,0,C,NA,1,1,26,Male
1,17,2-player,CG,1,2,14,3,6.5,91,0,C,0,C,NA,1,1,26,Male
1,17,2-player,CG,1,7,27,11,6.5,175.5,0,C,0,C,NA,1,1,26,Male
1,17,2-player,CG,1,4,6,12,6.5,39,0,C,0,C,NA,1,1,26,Male
1,17,2-player,CG,1,7,22,11,6.5,143,0,C,0,C,NA,1,1,26,Male
1,17,2-player,CG,1,7,35,11,6.5,227.5,0,C,0,C,NA,1,1,26,Male
1,17,2-player,CG,1,7,12,11,6.5,78,0,C,0,C,NA,1,1,26,Male
1,17,2-player,CG,1,7,25,11,6.5,162.5,0,C,0,C,NA,1,1,26,Male
1,17,2-player,CG,1,7,7,11,6.5,45.5,0,C,0,C,NA,1,1,26,Male
1,17,2-player,CG,1,4,9,12,6.5,58.5,0,C,0,C,NA,1,1,26,Male
1,17,2-player,CG,1,7,2,11,6.5,13,0,C,0,C,NA,1,1,26,Male
1,17,2-player,CG,1,6,9,12,6.5,58.5,0,C,0,C,NA,1,1,26,Male
1,17,2-player,CG,1,6,4,12,6.5,26,0,C,0,C,NA,1,1,26,Male
1,17,2-player,CG,1,3,4,3,6.5,26,0,C,0,C,NA,1,1,26,Male
1,17,2-player,CG,1,4,7,12,6.5,45.5,0,C,0,C,NA,1,1,26,Male
1,17,2-player,CG,1,2,8,3,6.5,52,0,C,0,C,NA,1,1,26,Male
1,17,2-player,CG,1,2,3,3,6.5,19.5,0,C,0,C,NA,1,1,26,Male
1,17,2-player,CG,1,1,3,3,2.5,4.5,2,E-,1,E-,NA,9,6,26,Male
1,17,2-player,CG,1,2,11,3,6.5,71.5,0,C,0,C,NA,1,1,26,Male
1,17,2-player,CG,1,6,11,12,6.5,71.5,0,C,0,C,NA,1,1,26,Male
1,17,2-player,CG,1,6,6,12,6.5,39,0,C,0,C,NA,1,1,26,Male
1,17,2-player,CG,1,3,1,3,6.5,6.5,0,C,0,C,NA,1,1,26,Male
1,17,2-player,CG,1,6,10,12,6.5,65,0,C,0,C,NA,1,1,26,Male
1,17,2-player,CG,1,2,5,3,6.5,32.5,0,C,0,C,NA,1,1,26,Male
1,17,2-player,CG,1,1,5,3,2.5,9.5,2,E-,1,E-,NA,9,6,26,Male
1,17,2-player,CG,1,4,8,12,6.5,52,0,C,0,C,NA,1,1,26,Male
1,17,2-player,CG,1,7,28,11,6.5,182,0,C,0,C,NA,1,1,26,Male
1,17,2-player,CG,1,2,4,3,6.5,26,0,C,0,C,NA,1,1,26,Male
1,17,2-player,CG,1,7,23,11,6.5,149.5,0,C,0,C,NA,1,1,26,Male
1,17,2-player,CG,1,2,12,3,6.5,78,0,C,0,C,NA,1,1,26,Male
1,17,2-player,CG,1,7,13,11,6.5,84.5,0,C,0,C,NA,1,1,26,Male
1,17,2-player,CG,1,7,4,11,6.5,26,0,C,0,C,NA,1,1,26,Male
1,17,2-player,CG,1,7,8,11,6.5,52,0,C,0,C,NA,1,1,26,Male
1,17,2-player,CG,1,4,10,12,6.5,65,0,C,0,C,NA,1,1,26,Male
1,17,2-player,CG,1,7,3,11,6.5,19.5,0,C,0,C,NA,1,1,26,Male
1,17,2-player,CG,1,2,1,3,6.5,6.5,0,C,0,C,NA,1,1,26,Male
1,17,2-player,CG,1,6,5,12,6.5,32.5,0,C,0,C,NA,1,1,26,Male
1,17,2-player,CG,1,3,5,3,6.5,32.5,0,C,0,C,NA,1,1,26,Male
1,17,2-player,CG,1,6,1,12,6.5,6.5,0,C,0,C,NA,1,1,26,Male
1,17,2-player,CG,1,2,9,3,6.5,58.5,0,C,0,C,NA,1,1,26,Male
1,17,2-player,CG,1,7,6,11,6.5,39,0,C,0,C,NA,1,1,26,Male
1,17,2-player,CG,1,1,4,3,2.5,7,2,E-,1,E-,NA,9,6,26,Male
1,17,2-player,CG,1,7,5,11,6.5,32.5,0,C,0,C,NA,1,1,26,Male
1,17,2-player,CG,1,6,12,12,6.5,78,0,C,0,C,NA,1,1,26,Male
1,17,2-player,CG,1,6,7,12,6.5,45.5,0,C,0,C,NA,1,1,26,Male
1,17,2-player,CG,1,3,2,3,6.5,13,0,C,0,C,NA,1,1,26,Male
1,17,2-player,CG,1,2,2,3,6.5,13,0,C,0,C,NA,1,1,26,Male
1,17,2-player,CG,1,2,6,3,6.5,39,0,C,0,C,NA,1,1,26,Male
1,17,2-player,CG,1,4,4,12,6.5,26,0,C,0,C,NA,1,1,26,Male
1,17,2-player,CG,1,5,3,12,6.5,19.5,0,C,0,C,NA,1,1,26,Male
1,17,2-player,CG,1,4,5,12,6.5,32.5,0,C,0,C,NA,1,1,26,Male
1,17,2-player,CG,1,6,8,12,6.5,52,0,C,0,C,NA,1,1,26,Male
1,17,2-player,CG,1,5,5,12,6.5,32.5,0,C,0,C,NA,1,1,26,Male
1,17,2-player,CG,1,4,11,12,6.5,71.5,0,C,0,C,NA,1,1,26,Male
1,17,2-player,CG,1,7,1,11,6.5,6.5,0,C,0,C,NA,1,1,26,Male
1,17,2-player,CG,1,5,6,12,6.5,39,0,C,0,C,NA,1,1,26,Male
1,17,2-player,CG,1,4,1,12,6.5,6.5,0,C,0,C,NA,1,1,26,Male
1,17,2-player,CG,1,5,2,12,6.5,13,0,C,0,C,NA,1,1,26,Male
1,17,2-player,CG,1,2,7,3,6.5,45.5,0,C,0,C,NA,1,1,26,Male
1,17,2-player,CG,1,4,2,12,6.5,13,0,C,0,C,NA,1,1,26,Male
1,17,2-player,CG,1,5,1,12,6.5,6.5,0,C,0,C,NA,1,1,26,Male
1,17,2-player,CG,1,3,3,3,6.5,19.5,0,C,0,C,NA,1,1,26,Male
1,17,2-player,CG,1,6,2,12,6.5,13,0,C,0,C,NA,1,1,26,Male
1,17,2-player,CG,1,5,4,12,6.5,26,0,C,0,C,NA,1,1,26,Male
1,17,2-player,CG,1,4,3,12,6.5,19.5,0,C,0,C,NA,1,1,26,Male
1,17,2-player,CG,1,6,3,12,6.5,19.5,0,C,0,C,NA,1,1,26,Male
1,18,2-player,CG,1,2,14,6,6.5,91,0,C,0,C,NA,1,1,20,Male
1,18,2-player,CG,1,2,10,6,6.5,65,0,C,0,C,NA,1,1,20,Male
1,18,2-player,CG,1,2,11,6,6.5,71.5,0,C,0,C,NA,1,1,20,Male
1,18,2-player,CG,1,7,34,7,6.5,221,0,C,0,C,NA,1,1,20,Male
1,18,2-player,CG,1,2,13,6,6.5,84.5,0,C,0,C,NA,1,1,20,Male
1,18,2-player,CG,1,1,1,7,6.5,6.5,0,C,0,C,NA,1,1,20,Male
1,18,2-player,CG,1,7,36,7,6.5,234,0,C,0,C,NA,1,1,20,Male
1,18,2-player,CG,1,6,6,3,6.5,39,0,C,0,C,NA,1,1,20,Male
1,18,2-player,CG,1,6,4,3,6.5,26,0,C,0,C,NA,1,1,20,Male
1,18,2-player,CG,1,3,1,3,6.5,6.5,0,C,0,C,NA,1,1,20,Male
1,18,2-player,CG,1,7,21,7,6.5,136.5,0,C,0,C,NA,1,1,20,Male
1,18,2-player,CG,1,6,5,3,6.5,32.5,0,C,0,C,NA,1,1,20,Male
1,18,2-player,CG,1,2,12,6,6.5,78,0,C,0,C,NA,1,1,20,Male
1,18,2-player,CG,1,7,20,7,6.5,130,0,C,0,C,NA,1,1,20,Male
1,18,2-player,CG,1,3,4,3,6.5,26,0,C,0,C,NA,1,1,20,Male
1,18,2-player,CG,1,7,19,7,6.5,123.5,0,C,0,C,NA,1,1,20,Male
1,18,2-player,CG,1,1,2,7,6.5,13,0,C,0,C,NA,1,1,20,Male
1,18,2-player,CG,1,7,37,7,6.5,240.5,0,C,0,C,NA,1,1,20,Male
1,18,2-player,CG,1,1,3,7,6.5,19.5,0,C,0,C,NA,1,1,20,Male
1,18,2-player,CG,1,6,7,3,6.5,45.5,0,C,0,C,NA,1,1,20,Male
1,18,2-player,CG,1,3,5,3,6.5,32.5,0,C,0,C,NA,1,1,20,Male
1,18,2-player,CG,1,7,22,7,6.5,143,0,C,0,C,NA,1,1,20,Male
1,18,2-player,CG,1,7,35,7,6.5,227.5,0,C,0,C,NA,1,1,20,Male
1,18,2-player,CG,1,7,7,7,6.5,45.5,0,C,0,C,NA,1,1,20,Male
1,18,2-player,CG,1,2,1,6,6.5,6.5,0,C,0,C,NA,1,1,20,Male
1,18,2-player,CG,1,4,9,6,6.5,58.5,0,C,0,C,NA,1,1,20,Male
1,18,2-player,CG,1,7,29,7,6.5,188.5,0,C,0,C,NA,1,1,20,Male
1,18,2-player,CG,1,7,24,7,6.5,156,0,C,0,C,NA,1,1,20,Male
1,18,2-player,CG,1,4,4,6,6.5,26,0,C,0,C,NA,1,1,20,Male
1,18,2-player,CG,1,1,4,7,6.5,26,0,C,0,C,NA,1,1,20,Male
1,18,2-player,CG,1,7,14,7,6.5,91,0,C,0,C,NA,1,1,20,Male
1,18,2-player,CG,1,7,9,7,6.5,58.5,0,C,0,C,NA,1,1,20,Male
1,18,2-player,CG,1,4,11,6,6.5,71.5,0,C,0,C,NA,1,1,20,Male
1,18,2-player,CG,1,3,2,3,6.5,13,0,C,0,C,NA,1,1,20,Male
1,18,2-player,CG,1,7,31,7,6.5,201.5,0,C,0,C,NA,1,1,20,Male
1,18,2-player,CG,1,7,26,7,6.5,169,0,C,0,C,NA,1,1,20,Male
1,18,2-player,CG,1,4,1,6,6.5,6.5,0,C,0,C,NA,1,1,20,Male
1,18,2-player,CG,1,7,30,7,6.5,195,0,C,0,C,NA,1,1,20,Male
1,18,2-player,CG,1,7,16,7,6.5,104,0,C,0,C,NA,1,1,20,Male
1,18,2-player,CG,1,7,11,7,6.5,71.5,0,C,0,C,NA,1,1,20,Male
1,18,2-player,CG,1,1,5,7,6.5,32.5,0,C,0,C,NA,1,1,20,Male
1,18,2-player,CG,1,4,8,6,6.5,52,0,C,0,C,NA,1,1,20,Male
1,18,2-player,CG,1,7,10,7,6.5,65,0,C,0,C,NA,1,1,20,Male
1,18,2-player,CG,1,6,8,3,6.5,52,0,C,0,C,NA,1,1,20,Male
1,18,2-player,CG,1,3,3,3,6.5,19.5,0,C,0,C,NA,1,1,20,Male
1,18,2-player,CG,1,7,23,7,6.5,149.5,0,C,0,C,NA,1,1,20,Male
1,18,2-player,CG,1,4,6,6,6.5,39,0,C,0,C,NA,1,1,20,Male
1,18,2-player,CG,1,7,8,7,6.5,52,0,C,0,C,NA,1,1,20,Male
1,18,2-player,CG,1,2,2,6,6.5,13,0,C,0,C,NA,1,1,20,Male
1,18,2-player,CG,1,4,10,6,6.5,65,0,C,0,C,NA,1,1,20,Male
1,18,2-player,CG,1,7,12,7,6.5,78,0,C,0,C,NA,1,1,20,Male
1,18,2-player,CG,1,7,25,7,6.5,162.5,0,C,0,C,NA,1,1,20,Male
1,18,2-player,CG,1,4,5,6,6.5,32.5,0,C,0,C,NA,1,1,20,Male
1,18,2-player,CG,1,7,2,7,6.5,13,0,C,0,C,NA,1,1,20,Male
1,18,2-player,CG,1,7,15,7,6.5,97.5,0,C,0,C,NA,1,1,20,Male
1,18,2-player,CG,1,6,1,3,6.5,6.5,0,C,0,C,NA,1,1,20,Male
1,18,2-player,CG,1,5,1,5,6.5,6.5,0,C,0,C,NA,1,1,20,Male
1,18,2-player,CG,1,4,7,6,6.5,45.5,0,C,0,C,NA,1,1,20,Male
1,18,2-player,CG,1,7,32,7,6.5,208,0,C,0,C,NA,1,1,20,Male
1,18,2-player,CG,1,7,27,7,6.5,175.5,0,C,0,C,NA,1,1,20,Male
1,18,2-player,CG,1,4,2,6,6.5,13,0,C,0,C,NA,1,1,20,Male
1,18,2-player,CG,1,7,4,7,6.5,26,0,C,0,C,NA,1,1,20,Male
1,18,2-player,CG,1,7,17,7,6.5,110.5,0,C,0,C,NA,1,1,20,Male
1,18,2-player,CG,1,6,3,3,6.5,19.5,0,C,0,C,NA,1,1,20,Male
1,18,2-player,CG,1,5,3,5,6.5,19.5,0,C,0,C,NA,1,1,20,Male
1,18,2-player,CG,1,6,10,3,6.5,65,0,C,0,C,NA,1,1,20,Male
1,18,2-player,CG,1,2,5,6,6.5,32.5,0,C,0,C,NA,1,1,20,Male
1,18,2-player,CG,1,6,9,3,6.5,58.5,0,C,0,C,NA,1,1,20,Male
1,18,2-player,CG,1,2,3,6,6.5,19.5,0,C,0,C,NA,1,1,20,Male
1,18,2-player,CG,1,7,33,7,6.5,214.5,0,C,0,C,NA,1,1,20,Male
1,18,2-player,CG,1,7,28,7,6.5,182,0,C,0,C,NA,1,1,20,Male
1,18,2-player,CG,1,2,8,6,6.5,52,0,C,0,C,NA,1,1,20,Male
1,18,2-player,CG,1,5,2,5,6.5,13,0,C,0,C,NA,1,1,20,Male
1,18,2-player,CG,1,7,18,7,6.5,117,0,C,0,C,NA,1,1,20,Male
1,18,2-player,CG,1,7,13,7,6.5,84.5,0,C,0,C,NA,1,1,20,Male
1,18,2-player,CG,1,6,11,3,6.5,71.5,0,C,0,C,NA,1,1,20,Male
1,18,2-player,CG,1,4,3,6,6.5,19.5,0,C,0,C,NA,1,1,20,Male
1,18,2-player,CG,1,7,3,7,6.5,19.5,0,C,0,C,NA,1,1,20,Male
1,18,2-player,CG,1,6,2,3,6.5,13,0,C,0,C,NA,1,1,20,Male
1,18,2-player,CG,1,2,4,6,6.5,26,0,C,0,C,NA,1,1,20,Male
1,18,2-player,CG,1,5,4,5,6.5,26,0,C,0,C,NA,1,1,20,Male
1,18,2-player,CG,1,7,5,7,6.5,32.5,0,C,0,C,NA,1,1,20,Male
1,18,2-player,CG,1,2,9,6,6.5,58.5,0,C,0,C,NA,1,1,20,Male
1,18,2-player,CG,1,5,5,5,6.5,32.5,0,C,0,C,NA,1,1,20,Male
1,18,2-player,CG,1,7,6,7,6.5,39,0,C,0,C,NA,1,1,20,Male
1,18,2-player,CG,1,7,1,7,6.5,6.5,0,C,0,C,NA,1,1,20,Male
1,18,2-player,CG,1,6,12,3,6.5,78,0,C,0,C,NA,1,1,20,Male
1,18,2-player,CG,1,2,7,6,6.5,45.5,0,C,0,C,NA,1,1,20,Male
1,18,2-player,CG,1,2,6,6,6.5,39,0,C,0,C,NA,1,1,20,Male
1,18,2-player,CG,1,5,6,5,6.5,39,0,C,0,C,NA,1,1,20,Male
1,19,2-player,CG,1,6,5,1,6.5,32.5,0,C,0,C,NA,1,1,22,Female
1,19,2-player,CG,1,6,4,1,6.5,26,0,C,0,C,NA,1,1,22,Female
1,19,2-player,CG,1,3,2,5,6.5,13,0,C,0,C,NA,1,1,22,Female
1,19,2-player,CG,1,3,1,5,6.5,6.5,0,C,0,C,NA,1,1,22,Female
1,19,2-player,CG,1,7,24,2,6.5,156,0,C,0,C,NA,1,1,22,Female
1,19,2-player,CG,1,7,7,2,6.5,45.5,0,C,0,C,NA,1,1,22,Female
1,19,2-player,CG,1,7,25,2,6.5,162.5,0,C,0,C,NA,1,1,22,Female
1,19,2-player,CG,1,7,26,2,6.5,169,0,C,0,C,NA,1,1,22,Female
1,19,2-player,CG,1,1,5,11,2.5,20,4,E-,0,E-,NA,9,6,22,Female
1,19,2-player,CG,1,3,4,5,6.5,26,0,C,0,C,NA,1,1,22,Female
1,19,2-player,CG,1,7,27,2,6.5,175.5,0,C,0,C,NA,1,1,22,Female
1,19,2-player,CG,1,3,5,5,6.5,32.5,0,C,0,C,NA,1,1,22,Female
1,19,2-player,CG,1,3,3,5,6.5,19.5,0,C,0,C,NA,1,1,22,Female
1,19,2-player,CG,1,6,6,1,6.5,39,0,C,0,C,NA,1,1,22,Female
1,19,2-player,CG,1,2,10,9,2.5,23.5,6,E-,1,E-,NA,9,6,22,Female
1,19,2-player,CG,1,2,1,9,5,5,0,nC,0,C,NA,4,2,22,Female
1,19,2-player,CG,1,7,8,2,6.5,52,0,C,0,C,NA,1,1,22,Female
1,19,2-player,CG,1,2,14,9,2.5,33.5,6,E-,1,E-,NA,9,6,22,Female
1,19,2-player,CG,1,6,9,1,6.5,58.5,0,C,0,C,NA,1,1,22,Female
1,19,2-player,CG,1,2,13,9,2.5,31,6,E-,1,E-,NA,9,6,22,Female
1,19,2-player,CG,1,1,1,11,5,5,0,nC,0,C,NA,4,2,22,Female
1,19,2-player,CG,1,7,19,2,6.5,123.5,0,C,0,C,NA,1,1,22,Female
1,19,2-player,CG,1,7,9,2,6.5,58.5,0,C,0,C,NA,1,1,22,Female
1,19,2-player,CG,1,2,3,9,-0.5,4,0,C,0,nC,NA,2,2,22,Female
1,19,2-player,CG,1,6,7,1,6.5,45.5,0,C,0,C,NA,1,1,22,Female
1,19,2-player,CG,1,2,11,9,2.5,26,6,E-,1,E-,NA,9,6,22,Female
1,19,2-player,CG,1,6,11,1,6.5,71.5,0,C,0,C,NA,1,1,22,Female
1,19,2-player,CG,1,4,1,4,6.5,6.5,0,C,0,C,NA,1,1,22,Female
1,19,2-player,CG,1,7,35,2,6.5,227.5,0,C,0,C,NA,1,1,22,Female
1,19,2-player,CG,1,7,21,2,6.5,136.5,0,C,0,C,NA,1,1,22,Female
1,19,2-player,CG,1,7,34,2,6.5,221,0,C,0,C,NA,1,1,22,Female
1,19,2-player,CG,1,7,11,2,6.5,71.5,0,C,0,C,NA,1,1,22,Female
1,19,2-player,CG,1,4,4,4,6.5,26,0,C,0,C,NA,1,1,22,Female
1,19,2-player,CG,1,7,10,2,6.5,65,0,C,0,C,NA,1,1,22,Female
1,19,2-player,CG,1,7,28,2,6.5,182,0,C,0,C,NA,1,1,22,Female
1,19,2-player,CG,1,6,8,1,6.5,52,0,C,0,C,NA,1,1,22,Female
1,19,2-player,CG,1,2,12,9,2.5,28.5,6,E-,1,E-,NA,9,6,22,Female
1,19,2-player,CG,1,1,3,11,5,15,0,nC,0,C,NA,4,2,22,Female
1,19,2-player,CG,1,7,36,2,6.5,234,0,C,0,C,NA,1,1,22,Female
1,19,2-player,CG,1,2,2,9,-0.5,4.5,0,C,0,nC,NA,2,2,22,Female
1,19,2-player,CG,1,1,2,11,5,10,0,nC,0,C,NA,4,2,22,Female
1,19,2-player,CG,1,7,12,2,6.5,78,0,C,0,C,NA,1,1,22,Female
1,19,2-player,CG,1,6,10,1,6.5,65,0,C,0,C,NA,1,1,22,Female
1,19,2-player,CG,1,4,5,4,6.5,32.5,0,C,0,C,NA,1,1,22,Female
1,19,2-player,CG,1,4,9,4,6.5,58.5,0,C,0,C,NA,1,1,22,Female
1,19,2-player,CG,1,7,20,2,6.5,130,0,C,0,C,NA,1,1,22,Female
1,19,2-player,CG,1,5,2,10,6.5,13,0,C,0,C,NA,1,1,22,Female
1,19,2-player,CG,1,2,4,9,5,9,0,nC,0,C,NA,4,2,22,Female
1,19,2-player,CG,1,1,4,11,2.5,17.5,4,nC,0,E,NA,8,5,22,Female
1,19,2-player,CG,1,7,37,2,6.5,240.5,0,C,0,C,NA,1,1,22,Female
1,19,2-player,CG,1,6,12,1,6.5,78,0,C,0,C,NA,1,1,22,Female
1,19,2-player,CG,1,4,2,4,6.5,13,0,C,0,C,NA,1,1,22,Female
1,19,2-player,CG,1,4,6,4,6.5,39,0,C,0,C,NA,1,1,22,Female
1,19,2-player,CG,1,7,22,2,6.5,143,0,C,0,C,NA,1,1,22,Female
1,19,2-player,CG,1,5,4,10,6.5,26,0,C,0,C,NA,1,1,22,Female
1,19,2-player,CG,1,2,6,9,2.5,13.5,6,E,1,nC,NA,7,5,22,Female
1,19,2-player,CG,1,5,3,10,6.5,19.5,0,C,0,C,NA,1,1,22,Female
1,19,2-player,CG,1,7,16,2,6.5,104,0,C,0,C,NA,1,1,22,Female
1,19,2-player,CG,1,7,29,2,6.5,188.5,0,C,0,C,NA,1,1,22,Female
1,19,2-player,CG,1,7,2,2,6.5,13,0,C,0,C,NA,1,1,22,Female
1,19,2-player,CG,1,4,8,4,6.5,52,0,C,0,C,NA,1,1,22,Female
1,19,2-player,CG,1,7,1,2,6.5,6.5,0,C,0,C,NA,1,1,22,Female
1,19,2-player,CG,1,7,14,2,6.5,91,0,C,0,C,NA,1,1,22,Female
1,19,2-player,CG,1,5,5,10,6.5,32.5,0,C,0,C,NA,1,1,22,Female
1,19,2-player,CG,1,4,11,4,6.5,71.5,0,C,0,C,NA,1,1,22,Female
1,19,2-player,CG,1,7,13,2,6.5,84.5,0,C,0,C,NA,1,1,22,Female
1,19,2-player,CG,1,7,31,2,6.5,201.5,0,C,0,C,NA,1,1,22,Female
1,19,2-player,CG,1,7,4,2,6.5,26,0,C,0,C,NA,1,1,22,Female
1,19,2-player,CG,1,4,10,4,6.5,65,0,C,0,C,NA,1,1,22,Female
1,19,2-player,CG,1,7,30,2,6.5,195,0,C,0,C,NA,1,1,22,Female
1,19,2-player,CG,1,7,3,2,6.5,19.5,0,C,0,C,NA,1,1,22,Female
1,19,2-player,CG,1,2,5,9,2,11,0,nC,0,nC,NA,6,4,22,Female
1,19,2-player,CG,1,6,1,1,6.5,6.5,0,C,0,C,NA,1,1,22,Female
1,19,2-player,CG,1,7,15,2,6.5,97.5,0,C,0,C,NA,1,1,22,Female
1,19,2-player,CG,1,5,6,10,6.5,39,0,C,0,C,NA,1,1,22,Female
1,19,2-player,CG,1,4,3,4,6.5,19.5,0,C,0,C,NA,1,1,22,Female
1,19,2-player,CG,1,4,7,4,6.5,45.5,0,C,0,C,NA,1,1,22,Female
1,19,2-player,CG,1,7,23,2,6.5,149.5,0,C,0,C,NA,1,1,22,Female
1,19,2-player,CG,1,7,5,2,6.5,32.5,0,C,0,C,NA,1,1,22,Female
1,19,2-player,CG,1,2,7,9,2.5,16,6,E-,1,E-,NA,9,6,22,Female
1,19,2-player,CG,1,6,3,1,6.5,19.5,0,C,0,C,NA,1,1,22,Female
1,19,2-player,CG,1,7,17,2,6.5,110.5,0,C,0,C,NA,1,1,22,Female
1,19,2-player,CG,1,6,2,1,6.5,13,0,C,0,C,NA,1,1,22,Female
1,19,2-player,CG,1,2,8,9,2.5,18.5,6,E-,1,E-,NA,9,6,22,Female
1,19,2-player,CG,1,5,1,10,6.5,6.5,0,C,0,C,NA,1,1,22,Female
1,19,2-player,CG,1,7,6,2,6.5,39,0,C,0,C,NA,1,1,22,Female
1,19,2-player,CG,1,7,32,2,6.5,208,0,C,0,C,NA,1,1,22,Female
1,19,2-player,CG,1,7,18,2,6.5,117,0,C,0,C,NA,1,1,22,Female
1,19,2-player,CG,1,7,33,2,6.5,214.5,0,C,0,C,NA,1,1,22,Female
1,19,2-player,CG,1,2,9,9,2.5,21,6,E-,1,E-,NA,9,6,22,Female
1,2,2-player,CG,1,4,8,12,6.5,52,0,C,0,C,NA,1,1,23,Male
1,2,2-player,CG,1,2,12,3,6.5,78,0,C,0,C,NA,1,1,23,Male
1,2,2-player,CG,1,2,13,3,6.5,84.5,0,C,0,C,NA,1,1,23,Male
1,2,2-player,CG,1,6,6,2,6.5,39,0,C,0,C,NA,1,1,23,Male
1,2,2-player,CG,1,3,1,8,6.5,6.5,0,C,0,C,NA,1,1,23,Male
1,2,2-player,CG,1,2,14,3,6.5,91,0,C,0,C,NA,1,1,23,Male
1,2,2-player,CG,1,7,11,1,6.5,71.5,0,C,0,C,NA,1,1,23,Male
1,2,2-player,CG,1,6,9,2,6.5,58.5,0,C,0,C,NA,1,1,23,Male
1,2,2-player,CG,1,7,24,1,6.5,156,0,C,0,C,NA,1,1,23,Male
1,2,2-player,CG,1,6,8,2,6.5,52,0,C,0,C,NA,1,1,23,Male
1,2,2-player,CG,1,7,28,1,6.5,182,0,C,0,C,NA,1,1,23,Male
1,2,2-player,CG,1,7,9,1,6.5,58.5,0,C,0,C,NA,1,1,23,Male
1,2,2-player,CG,1,7,25,1,6.5,162.5,0,C,0,C,NA,1,1,23,Male
1,2,2-player,CG,1,3,2,8,6.5,13,0,C,0,C,NA,1,1,23,Male
1,2,2-player,CG,1,7,13,1,6.5,84.5,0,C,0,C,NA,1,1,23,Male
1,2,2-player,CG,1,7,26,1,6.5,169,0,C,0,C,NA,1,1,23,Male
1,2,2-player,CG,1,6,7,2,6.5,45.5,0,C,0,C,NA,1,1,23,Male
1,2,2-player,CG,1,4,9,12,6.5,58.5,0,C,0,C,NA,1,1,23,Male
1,2,2-player,CG,1,6,10,2,6.5,65,0,C,0,C,NA,1,1,23,Male
1,2,2-player,CG,1,3,5,8,6.5,32.5,0,C,0,C,NA,1,1,23,Male
1,2,2-player,CG,1,1,5,5,6.5,32.5,0,C,0,C,NA,1,1,23,Male
1,2,2-player,CG,1,3,4,8,6.5,26,0,C,0,C,NA,1,1,23,Male
1,2,2-player,CG,1,7,10,1,6.5,65,0,C,0,C,NA,1,1,23,Male
1,2,2-player,CG,1,5,1,9,6.5,6.5,0,C,0,C,NA,1,1,23,Male
1,2,2-player,CG,1,3,3,8,6.5,19.5,0,C,0,C,NA,1,1,23,Male
1,2,2-player,CG,1,4,11,12,6.5,71.5,0,C,0,C,NA,1,1,23,Male
1,2,2-player,CG,1,7,27,1,6.5,175.5,0,C,0,C,NA,1,1,23,Male
1,2,2-player,CG,1,4,2,12,6.5,13,0,C,0,C,NA,1,1,23,Male
1,2,2-player,CG,1,4,10,12,6.5,65,0,C,0,C,NA,1,1,23,Male
1,2,2-player,CG,1,4,1,12,6.5,6.5,0,C,0,C,NA,1,1,23,Male
1,2,2-player,CG,1,7,12,1,6.5,78,0,C,0,C,NA,1,1,23,Male
1,2,2-player,CG,1,2,1,3,6.5,6.5,0,C,0,C,NA,1,1,23,Male
1,2,2-player,CG,1,1,1,5,6.5,6.5,0,C,0,C,NA,1,1,23,Male
1,2,2-player,CG,1,7,34,1,6.5,221,0,C,0,C,NA,1,1,23,Male
1,2,2-player,CG,1,7,29,1,6.5,188.5,0,C,0,C,NA,1,1,23,Male
1,2,2-player,CG,1,7,20,1,6.5,130,0,C,0,C,NA,1,1,23,Male
1,2,2-player,CG,1,7,6,1,6.5,39,0,C,0,C,NA,1,1,23,Male
1,2,2-player,CG,1,7,19,1,6.5,123.5,0,C,0,C,NA,1,1,23,Male
1,2,2-player,CG,1,7,14,1,6.5,91,0,C,0,C,NA,1,1,23,Male
1,2,2-player,CG,1,2,3,3,6.5,19.5,0,C,0,C,NA,1,1,23,Male
1,2,2-player,CG,1,1,3,5,6.5,19.5,0,C,0,C,NA,1,1,23,Male
1,2,2-player,CG,1,7,4,1,6.5,26,0,C,0,C,NA,1,1,23,Male
1,2,2-player,CG,1,6,11,2,6.5,71.5,0,C,0,C,NA,1,1,23,Male
1,2,2-player,CG,1,1,2,5,6.5,13,0,C,0,C,NA,1,1,23,Male
1,2,2-player,CG,1,7,35,1,6.5,227.5,0,C,0,C,NA,1,1,23,Male
1,2,2-player,CG,1,7,21,1,6.5,136.5,0,C,0,C,NA,1,1,23,Male
1,2,2-player,CG,1,6,1,2,6.5,6.5,0,C,0,C,NA,1,1,23,Male
1,2,2-player,CG,1,5,2,9,6.5,13,0,C,0,C,NA,1,1,23,Male
1,2,2-player,CG,1,4,4,12,6.5,26,0,C,0,C,NA,1,1,23,Male
1,2,2-player,CG,1,7,15,1,6.5,97.5,0,C,0,C,NA,1,1,23,Male
1,2,2-player,CG,1,4,3,12,6.5,19.5,0,C,0,C,NA,1,1,23,Male
1,2,2-player,CG,1,1,4,5,6.5,26,0,C,0,C,NA,1,1,23,Male
1,2,2-player,CG,1,7,5,1,6.5,32.5,0,C,0,C,NA,1,1,23,Male
1,2,2-player,CG,1,7,23,1,6.5,149.5,0,C,0,C,NA,1,1,23,Male
1,2,2-player,CG,1,2,7,3,6.5,45.5,0,C,0,C,NA,1,1,23,Male
1,2,2-player,CG,1,2,2,3,6.5,13,0,C,0,C,NA,1,1,23,Male
1,2,2-player,CG,1,7,22,1,6.5,143,0,C,0,C,NA,1,1,23,Male
1,2,2-player,CG,1,6,2,2,6.5,13,0,C,0,C,NA,1,1,23,Male
1,2,2-player,CG,1,7,30,1,6.5,195,0,C,0,C,NA,1,1,23,Male
1,2,2-player,CG,1,4,5,12,6.5,32.5,0,C,0,C,NA,1,1,23,Male
1,2,2-player,CG,1,7,7,1,6.5,45.5,0,C,0,C,NA,1,1,23,Male
1,2,2-player,CG,1,2,5,3,6.5,32.5,0,C,0,C,NA,1,1,23,Male
1,2,2-player,CG,1,7,2,1,6.5,13,0,C,0,C,NA,1,1,23,Male
1,2,2-player,CG,1,2,4,3,6.5,26,0,C,0,C,NA,1,1,23,Male
1,2,2-player,CG,1,7,1,1,6.5,6.5,0,C,0,C,NA,1,1,23,Male
1,2,2-player,CG,1,2,8,3,6.5,52,0,C,0,C,NA,1,1,23,Male
1,2,2-player,CG,1,6,12,2,6.5,78,0,C,0,C,NA,1,1,23,Male
1,2,2-player,CG,1,7,32,1,6.5,208,0,C,0,C,NA,1,1,23,Male
1,2,2-player,CG,1,7,36,1,6.5,234,0,C,0,C,NA,1,1,23,Male
1,2,2-player,CG,1,7,31,1,6.5,201.5,0,C,0,C,NA,1,1,23,Male
1,2,2-player,CG,1,4,6,12,6.5,39,0,C,0,C,NA,1,1,23,Male
1,2,2-player,CG,1,5,3,9,6.5,19.5,0,C,0,C,NA,1,1,23,Male
1,2,2-player,CG,1,2,6,3,6.5,39,0,C,0,C,NA,1,1,23,Male
1,2,2-player,CG,1,7,16,1,6.5,104,0,C,0,C,NA,1,1,23,Male
1,2,2-player,CG,1,2,10,3,6.5,65,0,C,0,C,NA,1,1,23,Male
1,2,2-player,CG,1,5,5,9,6.5,32.5,0,C,0,C,NA,1,1,23,Male
1,2,2-player,CG,1,2,9,3,6.5,58.5,0,C,0,C,NA,1,1,23,Male
1,2,2-player,CG,1,5,6,9,6.5,39,0,C,0,C,NA,1,1,23,Male
1,2,2-player,CG,1,7,33,1,6.5,214.5,0,C,0,C,NA,1,1,23,Male
1,2,2-player,CG,1,7,18,1,6.5,117,0,C,0,C,NA,1,1,23,Male
1,2,2-player,CG,1,7,8,1,6.5,52,0,C,0,C,NA,1,1,23,Male
1,2,2-player,CG,1,6,3,2,6.5,19.5,0,C,0,C,NA,1,1,23,Male
1,2,2-player,CG,1,5,4,9,6.5,26,0,C,0,C,NA,1,1,23,Male
1,2,2-player,CG,1,7,37,1,6.5,240.5,0,C,0,C,NA,1,1,23,Male
1,2,2-player,CG,1,2,11,3,6.5,71.5,0,C,0,C,NA,1,1,23,Male
1,2,2-player,CG,1,7,3,1,6.5,19.5,0,C,0,C,NA,1,1,23,Male
1,2,2-player,CG,1,7,17,1,6.5,110.5,0,C,0,C,NA,1,1,23,Male
1,2,2-player,CG,1,6,5,2,6.5,32.5,0,C,0,C,NA,1,1,23,Male
1,2,2-player,CG,1,6,4,2,6.5,26,0,C,0,C,NA,1,1,23,Male
1,2,2-player,CG,1,4,7,12,6.5,45.5,0,C,0,C,NA,1,1,23,Male
1,20,2-player,CG,1,7,25,9,6.5,162.5,0,C,0,C,NA,1,1,30,Male
1,20,2-player,CG,1,6,4,11,6.5,26,0,C,0,C,NA,1,1,30,Male
1,20,2-player,CG,1,6,10,11,6.5,65,0,C,0,C,NA,1,1,30,Male
1,20,2-player,CG,1,7,24,9,6.5,156,0,C,0,C,NA,1,1,30,Male
1,20,2-player,CG,1,6,9,11,6.5,58.5,0,C,0,C,NA,1,1,30,Male
1,20,2-player,CG,1,7,27,9,6.5,175.5,0,C,0,C,NA,1,1,30,Male
1,20,2-player,CG,1,7,30,9,6.5,195,0,C,0,C,NA,1,1,30,Male
1,20,2-player,CG,1,7,26,9,6.5,169,0,C,0,C,NA,1,1,30,Male
1,20,2-player,CG,1,4,1,10,6.5,6.5,0,C,0,C,NA,1,1,30,Male
1,20,2-player,CG,1,3,1,11,6.5,6.5,0,C,0,C,NA,1,1,30,Male
1,20,2-player,CG,1,4,4,10,6.5,26,0,C,0,C,NA,1,1,30,Male
1,20,2-player,CG,1,7,7,9,6.5,45.5,0,C,0,C,NA,1,1,30,Male
1,20,2-player,CG,1,7,29,9,6.5,188.5,0,C,0,C,NA,1,1,30,Male
1,20,2-player,CG,1,7,2,9,6.5,13,0,C,0,C,NA,1,1,30,Male
1,20,2-player,CG,1,7,32,9,6.5,208,0,C,0,C,NA,1,1,30,Male
1,20,2-player,CG,1,4,2,10,6.5,13,0,C,0,C,NA,1,1,30,Male
1,20,2-player,CG,1,7,28,9,6.5,182,0,C,0,C,NA,1,1,30,Male
1,20,2-player,CG,1,7,4,9,6.5,26,0,C,0,C,NA,1,1,30,Male
1,20,2-player,CG,1,6,11,11,6.5,71.5,0,C,0,C,NA,1,1,30,Male
1,20,2-player,CG,1,7,12,9,6.5,78,0,C,0,C,NA,1,1,30,Male
1,20,2-player,CG,1,7,31,9,6.5,201.5,0,C,0,C,NA,1,1,30,Male
1,20,2-player,CG,1,6,5,11,6.5,32.5,0,C,0,C,NA,1,1,30,Male
1,20,2-player,CG,1,2,5,12,6.5,32.5,0,C,0,C,NA,1,1,30,Male
1,20,2-player,CG,1,1,5,10,6.5,25.5,0,C,0,C,NA,1,1,30,Male
1,20,2-player,CG,1,2,10,12,6.5,65,0,C,0,C,NA,1,1,30,Male
1,20,2-player,CG,1,2,13,12,6.5,84.5,0,C,0,C,NA,1,1,30,Male
1,20,2-player,CG,1,4,3,10,6.5,19.5,0,C,0,C,NA,1,1,30,Male
1,20,2-player,CG,1,7,14,9,6.5,91,0,C,0,C,NA,1,1,30,Male
1,20,2-player,CG,1,7,9,9,6.5,58.5,0,C,0,C,NA,1,1,30,Male
1,20,2-player,CG,1,3,2,11,6.5,13,0,C,0,C,NA,1,1,30,Male
1,20,2-player,CG,1,7,13,9,6.5,84.5,0,C,0,C,NA,1,1,30,Male
1,20,2-player,CG,1,7,8,9,6.5,52,0,C,0,C,NA,1,1,30,Male
1,20,2-player,CG,1,6,6,11,6.5,39,0,C,0,C,NA,1,1,30,Male
1,20,2-player,CG,1,7,3,9,6.5,19.5,0,C,0,C,NA,1,1,30,Male
1,20,2-player,CG,1,4,5,10,6.5,32.5,0,C,0,C,NA,1,1,30,Male
1,20,2-player,CG,1,3,5,11,6.5,32.5,0,C,0,C,NA,1,1,30,Male
1,20,2-player,CG,1,2,14,12,6.5,91,0,C,0,C,NA,1,1,30,Male
1,20,2-player,CG,1,3,4,11,6.5,26,0,C,0,C,NA,1,1,30,Male
1,20,2-player,CG,1,7,33,9,6.5,214.5,0,C,0,C,NA,1,1,30,Male
1,20,2-player,CG,1,7,10,9,6.5,65,0,C,0,C,NA,1,1,30,Male
1,20,2-player,CG,1,3,3,11,6.5,19.5,0,C,0,C,NA,1,1,30,Male
1,20,2-player,CG,1,7,5,9,6.5,32.5,0,C,0,C,NA,1,1,30,Male
1,20,2-player,CG,1,6,12,11,6.5,78,0,C,0,C,NA,1,1,30,Male
1,20,2-player,CG,1,6,7,11,6.5,45.5,0,C,0,C,NA,1,1,30,Male
1,20,2-player,CG,1,2,11,12,6.5,71.5,0,C,0,C,NA,1,1,30,Male
1,20,2-player,CG,1,7,17,9,6.5,110.5,0,C,0,C,NA,1,1,30,Male
1,20,2-player,CG,1,2,6,12,6.5,39,0,C,0,C,NA,1,1,30,Male
1,20,2-player,CG,1,2,1,12,6.5,6.5,0,C,0,C,NA,1,1,30,Male
1,20,2-player,CG,1,1,1,10,-0.5,-0.5,0,C,0,nC,NA,2,2,30,Male
1,20,2-player,CG,1,7,34,9,6.5,221,0,C,0,C,NA,1,1,30,Male
1,20,2-player,CG,1,4,9,10,6.5,58.5,0,C,0,C,NA,1,1,30,Male
1,20,2-player,CG,1,7,15,9,6.5,97.5,0,C,0,C,NA,1,1,30,Male
1,20,2-player,CG,1,7,6,9,6.5,39,0,C,0,C,NA,1,1,30,Male
1,20,2-player,CG,1,7,19,9,6.5,123.5,0,C,0,C,NA,1,1,30,Male
1,20,2-player,CG,1,2,8,12,6.5,52,0,C,0,C,NA,1,1,30,Male
1,20,2-player,CG,1,2,3,12,6.5,19.5,0,C,0,C,NA,1,1,30,Male
1,20,2-player,CG,1,1,3,10,6.5,12.5,0,C,0,C,NA,1,1,30,Male
1,20,2-player,CG,1,7,36,9,6.5,234,0,C,0,C,NA,1,1,30,Male
1,20,2-player,CG,1,4,6,10,6.5,39,0,C,0,C,NA,1,1,30,Male
1,20,2-player,CG,1,1,2,10,6.5,6,0,C,0,C,NA,1,1,30,Male
1,20,2-player,CG,1,7,35,9,6.5,227.5,0,C,0,C,NA,1,1,30,Male
1,20,2-player,CG,1,7,21,9,6.5,136.5,0,C,0,C,NA,1,1,30,Male
1,20,2-player,CG,1,7,16,9,6.5,104,0,C,0,C,NA,1,1,30,Male
1,20,2-player,CG,1,7,11,9,6.5,71.5,0,C,0,C,NA,1,1,30,Male
1,20,2-player,CG,1,7,20,9,6.5,130,0,C,0,C,NA,1,1,30,Male
1,20,2-player,CG,1,2,9,12,6.5,58.5,0,C,0,C,NA,1,1,30,Male
1,20,2-player,CG,1,7,1,9,6.5,6.5,0,C,0,C,NA,1,1,30,Male
1,20,2-player,CG,1,6,8,11,6.5,52,0,C,0,C,NA,1,1,30,Male
1,20,2-player,CG,1,2,12,12,6.5,78,0,C,0,C,NA,1,1,30,Male
1,20,2-player,CG,1,7,18,9,6.5,117,0,C,0,C,NA,1,1,30,Male
1,20,2-player,CG,1,2,7,12,6.5,45.5,0,C,0,C,NA,1,1,30,Male
1,20,2-player,CG,1,2,2,12,6.5,13,0,C,0,C,NA,1,1,30,Male
1,20,2-player,CG,1,7,22,9,6.5,143,0,C,0,C,NA,1,1,30,Male
1,20,2-player,CG,1,6,3,11,6.5,19.5,0,C,0,C,NA,1,1,30,Male
1,20,2-player,CG,1,4,10,10,6.5,65,0,C,0,C,NA,1,1,30,Male
1,20,2-player,CG,1,6,2,11,6.5,13,0,C,0,C,NA,1,1,30,Male
1,20,2-player,CG,1,5,3,3,6.5,19.5,0,C,0,C,NA,1,1,30,Male
1,20,2-player,CG,1,7,37,9,6.5,240.5,0,C,0,C,NA,1,1,30,Male
1,20,2-player,CG,1,6,1,11,6.5,6.5,0,C,0,C,NA,1,1,30,Male
1,20,2-player,CG,1,2,4,12,6.5,26,0,C,0,C,NA,1,1,30,Male
1,20,2-player,CG,1,1,4,10,6.5,19,0,C,0,C,NA,1,1,30,Male
1,20,2-player,CG,1,4,8,10,6.5,52,0,C,0,C,NA,1,1,30,Male
1,20,2-player,CG,1,4,7,10,6.5,45.5,0,C,0,C,NA,1,1,30,Male
1,20,2-player,CG,1,5,5,3,6.5,32.5,0,C,0,C,NA,1,1,30,Male
1,20,2-player,CG,1,4,11,10,6.5,71.5,0,C,0,C,NA,1,1,30,Male
1,20,2-player,CG,1,5,6,3,6.5,39,0,C,0,C,NA,1,1,30,Male
1,20,2-player,CG,1,5,4,3,6.5,26,0,C,0,C,NA,1,1,30,Male
1,20,2-player,CG,1,5,2,3,6.5,13,0,C,0,C,NA,1,1,30,Male
1,20,2-player,CG,1,5,1,3,6.5,6.5,0,C,0,C,NA,1,1,30,Male
1,20,2-player,CG,1,7,23,9,6.5,149.5,0,C,0,C,NA,1,1,30,Male
1,21,2-player,CG,1,7,29,3,6.5,188.5,0,C,0,C,NA,1,1,19,Female
1,21,2-player,CG,1,7,31,3,6.5,201.5,0,C,0,C,NA,1,1,19,Female
1,21,2-player,CG,1,7,26,3,6.5,169,0,C,0,C,NA,1,1,19,Female
1,21,2-player,CG,1,7,25,3,6.5,162.5,0,C,0,C,NA,1,1,19,Female
1,21,2-player,CG,1,7,34,3,6.5,221,0,C,0,C,NA,1,1,19,Female
1,21,2-player,CG,1,7,24,3,6.5,156,0,C,0,C,NA,1,1,19,Female
1,21,2-player,CG,1,7,30,3,6.5,195,0,C,0,C,NA,1,1,19,Female
1,21,2-player,CG,1,7,27,3,6.5,175.5,0,C,0,C,NA,1,1,19,Female
1,21,2-player,CG,1,7,36,3,6.5,234,0,C,0,C,NA,1,1,19,Female
1,21,2-player,CG,1,7,22,3,6.5,143,0,C,0,C,NA,1,1,19,Female
1,21,2-player,CG,1,2,11,8,2.5,24.5,2,E-,1,E-,NA,9,6,19,Female
1,21,2-player,CG,1,4,1,6,6.5,6.5,0,C,0,C,NA,1,1,19,Female
1,21,2-player,CG,1,3,1,12,6.5,6.5,0,C,0,C,NA,1,1,19,Female
1,21,2-player,CG,1,2,10,8,2.5,22,2,E-,1,E-,NA,9,6,19,Female
1,21,2-player,CG,1,1,1,12,6.5,6.5,0,C,0,C,NA,1,1,19,Female
1,21,2-player,CG,1,7,2,3,6.5,13,0,C,0,C,NA,1,1,19,Female
1,21,2-player,CG,1,6,9,11,6.5,58.5,0,C,0,C,NA,1,1,19,Female
1,21,2-player,CG,1,6,4,11,6.5,26,0,C,0,C,NA,1,1,19,Female
1,21,2-player,CG,1,2,13,8,2.5,29.5,2,E-,1,E-,NA,9,6,19,Female
1,21,2-player,CG,1,7,32,3,6.5,208,0,C,0,C,NA,1,1,19,Female
1,21,2-player,CG,1,7,23,3,6.5,149.5,0,C,0,C,NA,1,1,19,Female
1,21,2-player,CG,1,2,12,8,2.5,27,2,E-,1,E-,NA,9,6,19,Female
1,21,2-player,CG,1,4,6,6,6.5,39,0,C,0,C,NA,1,1,19,Female
1,21,2-player,CG,1,7,4,3,6.5,26,0,C,0,C,NA,1,1,19,Female
1,21,2-player,CG,1,7,35,3,6.5,227.5,0,C,0,C,NA,1,1,19,Female
1,21,2-player,CG,1,1,2,12,6.5,13,0,C,0,C,NA,1,1,19,Female
1,21,2-player,CG,1,7,3,3,6.5,19.5,0,C,0,C,NA,1,1,19,Female
1,21,2-player,CG,1,6,10,11,6.5,65,0,C,0,C,NA,1,1,19,Female
1,21,2-player,CG,1,6,5,11,6.5,32.5,0,C,0,C,NA,1,1,19,Female
1,21,2-player,CG,1,2,14,8,2.5,32,2,E-,1,E-,NA,9,6,19,Female
1,21,2-player,CG,1,7,33,3,6.5,214.5,0,C,0,C,NA,1,1,19,Female
1,21,2-player,CG,1,7,28,3,6.5,182,0,C,0,C,NA,1,1,19,Female
1,21,2-player,CG,1,7,37,3,6.5,240.5,0,C,0,C,NA,1,1,19,Female
1,21,2-player,CG,1,4,7,6,6.5,45.5,0,C,0,C,NA,1,1,19,Female
1,21,2-player,CG,1,7,5,3,6.5,32.5,0,C,0,C,NA,1,1,19,Female
1,21,2-player,CG,1,4,2,6,6.5,13,0,C,0,C,NA,1,1,19,Female
1,21,2-player,CG,1,3,2,12,6.5,13,0,C,0,C,NA,1,1,19,Female
1,21,2-player,CG,1,7,13,3,6.5,84.5,0,C,0,C,NA,1,1,19,Female
1,21,2-player,CG,1,7,17,3,6.5,110.5,0,C,0,C,NA,1,1,19,Female
1,21,2-player,CG,1,7,12,3,6.5,78,0,C,0,C,NA,1,1,19,Female
1,21,2-player,CG,1,7,7,3,6.5,45.5,0,C,0,C,NA,1,1,19,Female
1,21,2-player,CG,1,4,9,6,6.5,58.5,0,C,0,C,NA,1,1,19,Female
1,21,2-player,CG,1,2,5,8,2.5,9.5,2,E-,1,E-,NA,9,6,19,Female
1,21,2-player,CG,1,4,4,6,6.5,26,0,C,0,C,NA,1,1,19,Female
1,21,2-player,CG,1,3,4,12,6.5,26,0,C,0,C,NA,1,1,19,Female
1,21,2-player,CG,1,7,6,3,6.5,39,0,C,0,C,NA,1,1,19,Female
1,21,2-player,CG,1,7,19,3,6.5,123.5,0,C,0,C,NA,1,1,19,Female
1,21,2-player,CG,1,7,14,3,6.5,91,0,C,0,C,NA,1,1,19,Female
1,21,2-player,CG,1,7,9,3,6.5,58.5,0,C,0,C,NA,1,1,19,Female
1,21,2-player,CG,1,1,3,12,6.5,19.5,0,C,0,C,NA,1,1,19,Female
1,21,2-player,CG,1,6,7,11,6.5,45.5,0,C,0,C,NA,1,1,19,Female
1,21,2-player,CG,1,6,11,11,6.5,71.5,0,C,0,C,NA,1,1,19,Female
1,21,2-player,CG,1,6,6,11,6.5,39,0,C,0,C,NA,1,1,19,Female
1,21,2-player,CG,1,2,6,8,2.5,12,2,E-,1,E-,NA,9,6,19,Female
1,21,2-player,CG,1,7,21,3,6.5,136.5,0,C,0,C,NA,1,1,19,Female
1,21,2-player,CG,1,3,5,12,6.5,32.5,0,C,0,C,NA,1,1,19,Female
1,21,2-player,CG,1,1,5,12,6.5,32.5,0,C,0,C,NA,1,1,19,Female
1,21,2-player,CG,1,4,8,6,6.5,52,0,C,0,C,NA,1,1,19,Female
1,21,2-player,CG,1,7,15,3,6.5,97.5,0,C,0,C,NA,1,1,19,Female
1,21,2-player,CG,1,4,3,6,6.5,19.5,0,C,0,C,NA,1,1,19,Female
1,21,2-player,CG,1,3,3,12,6.5,19.5,0,C,0,C,NA,1,1,19,Female
1,21,2-player,CG,1,2,8,8,2.5,17,2,E-,1,E-,NA,9,6,19,Female
1,21,2-player,CG,1,7,18,3,6.5,117,0,C,0,C,NA,1,1,19,Female
1,21,2-player,CG,1,4,11,6,6.5,71.5,0,C,0,C,NA,1,1,19,Female
1,21,2-player,CG,1,7,8,3,6.5,52,0,C,0,C,NA,1,1,19,Female
1,21,2-player,CG,1,4,10,6,6.5,65,0,C,0,C,NA,1,1,19,Female
1,21,2-player,CG,1,5,4,2,6.5,26,0,C,0,C,NA,1,1,19,Female
1,21,2-player,CG,1,4,5,6,6.5,32.5,0,C,0,C,NA,1,1,19,Female
1,21,2-player,CG,1,5,3,2,6.5,19.5,0,C,0,C,NA,1,1,19,Female
1,21,2-player,CG,1,7,16,3,6.5,104,0,C,0,C,NA,1,1,19,Female
1,21,2-player,CG,1,7,20,3,6.5,130,0,C,0,C,NA,1,1,19,Female
1,21,2-player,CG,1,5,2,2,6.5,13,0,C,0,C,NA,1,1,19,Female
1,21,2-player,CG,1,7,10,3,6.5,65,0,C,0,C,NA,1,1,19,Female
1,21,2-player,CG,1,1,4,12,6.5,26,0,C,0,C,NA,1,1,19,Female
1,21,2-player,CG,1,6,8,11,6.5,52,0,C,0,C,NA,1,1,19,Female
1,21,2-player,CG,1,6,12,11,6.5,78,0,C,0,C,NA,1,1,19,Female
1,21,2-player,CG,1,5,5,2,6.5,32.5,0,C,0,C,NA,1,1,19,Female
1,21,2-player,CG,1,2,7,8,2.5,14.5,2,E-,1,E-,NA,9,6,19,Female
1,21,2-player,CG,1,2,2,8,2.5,2,2,E,1,C,NA,7,5,19,Female
1,21,2-player,CG,1,6,3,11,6.5,19.5,0,C,0,C,NA,1,1,19,Female
1,21,2-player,CG,1,2,1,8,-0.5,-0.5,0,C,0,nC,NA,2,2,19,Female
1,21,2-player,CG,1,6,2,11,6.5,13,0,C,0,C,NA,1,1,19,Female
1,21,2-player,CG,1,7,1,3,6.5,6.5,0,C,0,C,NA,1,1,19,Female
1,21,2-player,CG,1,7,11,3,6.5,71.5,0,C,0,C,NA,1,1,19,Female
1,21,2-player,CG,1,6,1,11,6.5,6.5,0,C,0,C,NA,1,1,19,Female
1,21,2-player,CG,1,2,9,8,2.5,19.5,2,E-,1,E-,NA,9,6,19,Female
1,21,2-player,CG,1,5,1,2,6.5,6.5,0,C,0,C,NA,1,1,19,Female
1,21,2-player,CG,1,2,3,8,2.5,4.5,2,E-,1,E-,NA,9,6,19,Female
1,21,2-player,CG,1,2,4,8,2.5,7,2,E-,1,E-,NA,9,6,19,Female
1,21,2-player,CG,1,5,6,2,6.5,39,0,C,0,C,NA,1,1,19,Female
1,22,2-player,CG,1,6,5,7,6.5,32.5,0,C,0,C,NA,1,1,25,Female
1,22,2-player,CG,1,7,22,10,6.5,130,0,C,0,C,NA,1,1,25,Female
1,22,2-player,CG,1,6,7,7,6.5,45.5,0,C,0,C,NA,1,1,25,Female
1,22,2-player,CG,1,7,26,10,6.5,156,0,C,0,C,NA,1,1,25,Female
1,22,2-player,CG,1,1,1,2,6.5,6.5,0,C,0,C,NA,1,1,25,Female
1,22,2-player,CG,1,2,11,7,6.5,71.5,0,C,0,C,NA,1,1,25,Female
1,22,2-player,CG,1,6,6,7,6.5,39,0,C,0,C,NA,1,1,25,Female
1,22,2-player,CG,1,6,4,7,6.5,26,0,C,0,C,NA,1,1,25,Female
1,22,2-player,CG,1,7,24,10,6.5,143,0,C,0,C,NA,1,1,25,Female
1,22,2-player,CG,1,4,9,4,6.5,58.5,0,C,0,C,NA,1,1,25,Female
1,22,2-player,CG,1,7,34,10,6.5,208,0,C,0,C,NA,1,1,25,Female
1,22,2-player,CG,1,6,8,7,6.5,52,0,C,0,C,NA,1,1,25,Female
1,22,2-player,CG,1,4,6,4,6.5,39,0,C,0,C,NA,1,1,25,Female
1,22,2-player,CG,1,1,3,2,6.5,19.5,0,C,0,C,NA,1,1,25,Female
1,22,2-player,CG,1,7,36,10,6.5,221,0,C,0,C,NA,1,1,25,Female
1,22,2-player,CG,1,1,2,2,6.5,13,0,C,0,C,NA,1,1,25,Female
1,22,2-player,CG,1,4,10,4,6.5,65,0,C,0,C,NA,1,1,25,Female
1,22,2-player,CG,1,2,10,7,6.5,65,0,C,0,C,NA,1,1,25,Female
1,22,2-player,CG,1,7,30,10,6.5,182,0,C,0,C,NA,1,1,25,Female
1,22,2-player,CG,1,7,25,10,6.5,149.5,0,C,0,C,NA,1,1,25,Female
1,22,2-player,CG,1,7,29,10,6.5,175.5,0,C,0,C,NA,1,1,25,Female
1,22,2-player,CG,1,4,8,4,6.5,52,0,C,0,C,NA,1,1,25,Female
1,22,2-player,CG,1,2,13,7,6.5,84.5,0,C,0,C,NA,1,1,25,Female
1,22,2-player,CG,1,7,23,10,6.5,136.5,0,C,0,C,NA,1,1,25,Female
1,22,2-player,CG,1,1,4,2,6.5,26,0,C,0,C,NA,1,1,25,Female
1,22,2-player,CG,1,2,12,7,6.5,78,0,C,0,C,NA,1,1,25,Female
1,22,2-player,CG,1,7,32,10,6.5,195,0,C,0,C,NA,1,1,25,Female
1,22,2-player,CG,1,7,27,10,6.5,162.5,0,C,0,C,NA,1,1,25,Female
1,22,2-player,CG,1,7,31,10,6.5,188.5,0,C,0,C,NA,1,1,25,Female
1,22,2-player,CG,1,7,4,10,6.5,26,0,C,0,C,NA,1,1,25,Female
1,22,2-player,CG,1,7,35,10,6.5,214.5,0,C,0,C,NA,1,1,25,Female
1,22,2-player,CG,1,7,7,10,6.5,45.5,0,C,0,C,NA,1,1,25,Female
1,22,2-player,CG,1,2,1,7,6.5,6.5,0,C,0,C,NA,1,1,25,Female
1,22,2-player,CG,1,2,14,7,6.5,91,0,C,0,C,NA,1,1,25,Female
1,22,2-player,CG,1,7,2,10,6.5,13,0,C,0,C,NA,1,1,25,Female
1,22,2-player,CG,1,6,9,7,6.5,58.5,0,C,0,C,NA,1,1,25,Female
1,22,2-player,CG,1,4,7,4,6.5,45.5,0,C,0,C,NA,1,1,25,Female
1,22,2-player,CG,1,7,33,10,6.5,201.5,0,C,0,C,NA,1,1,25,Female
1,22,2-player,CG,1,7,37,10,6.5,227.5,0,C,0,C,NA,1,1,25,Female
1,22,2-player,CG,1,7,9,10,6.5,58.5,0,C,0,C,NA,1,1,25,Female
1,22,2-player,CG,1,4,11,4,6.5,71.5,0,C,0,C,NA,1,1,25,Female
1,22,2-player,CG,1,3,2,4,6.5,13,0,C,0,C,NA,1,1,25,Female
1,22,2-player,CG,1,7,8,10,6.5,52,0,C,0,C,NA,1,1,25,Female
1,22,2-player,CG,1,4,1,4,6.5,6.5,0,C,0,C,NA,1,1,25,Female
1,22,2-player,CG,1,3,1,4,6.5,6.5,0,C,0,C,NA,1,1,25,Female
1,22,2-player,CG,1,7,3,10,6.5,19.5,0,C,0,C,NA,1,1,25,Female
1,22,2-player,CG,1,6,10,7,6.5,65,0,C,0,C,NA,1,1,25,Female
1,22,2-player,CG,1,7,11,10,6.5,71.5,0,C,0,C,NA,1,1,25,Female
1,22,2-player,CG,1,1,5,2,6.5,32.5,0,C,0,C,NA,1,1,25,Female
1,22,2-player,CG,1,3,4,4,6.5,26,0,C,0,C,NA,1,1,25,Female
1,22,2-player,CG,1,7,10,10,6.5,65,0,C,0,C,NA,1,1,25,Female
1,22,2-player,CG,1,7,28,10,6.5,169,0,C,0,C,NA,1,1,25,Female
1,22,2-player,CG,1,3,3,4,6.5,19.5,0,C,0,C,NA,1,1,25,Female
1,22,2-player,CG,1,7,5,10,6.5,32.5,0,C,0,C,NA,1,1,25,Female
1,22,2-player,CG,1,4,2,4,6.5,13,0,C,0,C,NA,1,1,25,Female
1,22,2-player,CG,1,7,18,10,6.5,104,0,C,0,C,NA,1,1,25,Female
1,22,2-player,CG,1,2,2,7,6.5,13,0,C,0,C,NA,1,1,25,Female
1,22,2-player,CG,1,7,17,10,6.5,97.5,0,C,0,C,NA,1,1,25,Female
1,22,2-player,CG,1,7,12,10,6.5,78,0,C,0,C,NA,1,1,25,Female
1,22,2-player,CG,1,5,3,6,6.5,19.5,0,C,0,C,NA,1,1,25,Female
1,22,2-player,CG,1,3,5,4,6.5,32.5,0,C,0,C,NA,1,1,25,Female
1,22,2-player,CG,1,2,5,7,6.5,32.5,0,C,0,C,NA,1,1,25,Female
1,22,2-player,CG,1,4,4,4,6.5,26,0,C,0,C,NA,1,1,25,Female
1,22,2-player,CG,1,7,20,10,6.5,117,0,C,0,C,NA,1,1,25,Female
1,22,2-player,CG,1,5,1,6,6.5,6.5,0,C,0,C,NA,1,1,25,Female
1,22,2-player,CG,1,7,19,10,6.5,110.5,0,C,0,C,NA,1,1,25,Female
1,22,2-player,CG,1,7,14,10,2,79.5,0,nC,0,nC,NA,6,4,25,Female
1,22,2-player,CG,1,2,3,7,6.5,19.5,0,C,0,C,NA,1,1,25,Female
1,22,2-player,CG,1,6,12,7,6.5,78,0,C,0,C,NA,1,1,25,Female
1,22,2-player,CG,1,7,13,10,-0.5,77.5,0,C,0,nC,NA,2,2,25,Female
1,22,2-player,CG,1,6,11,7,6.5,71.5,0,C,0,C,NA,1,1,25,Female
1,22,2-player,CG,1,6,3,7,6.5,19.5,0,C,0,C,NA,1,1,25,Female
1,22,2-player,CG,1,2,6,7,6.5,39,0,C,0,C,NA,1,1,25,Female
1,22,2-player,CG,1,7,21,10,6.5,123.5,0,C,0,C,NA,1,1,25,Female
1,22,2-player,CG,1,4,3,4,6.5,19.5,0,C,0,C,NA,1,1,25,Female
1,22,2-player,CG,1,5,2,6,6.5,13,0,C,0,C,NA,1,1,25,Female
1,22,2-player,CG,1,6,1,7,6.5,6.5,0,C,0,C,NA,1,1,25,Female
1,22,2-player,CG,1,7,6,10,6.5,39,0,C,0,C,NA,1,1,25,Female
1,22,2-player,CG,1,4,5,4,6.5,32.5,0,C,0,C,NA,1,1,25,Female
1,22,2-player,CG,1,7,1,10,6.5,6.5,0,C,0,C,NA,1,1,25,Female
1,22,2-player,CG,1,2,8,7,6.5,52,0,C,0,C,NA,1,1,25,Female
1,22,2-player,CG,1,5,5,6,6.5,32.5,0,C,0,C,NA,1,1,25,Female
1,22,2-player,CG,1,7,15,10,5,84.5,0,nC,0,C,NA,4,2,25,Female
1,22,2-player,CG,1,5,4,6,6.5,26,0,C,0,C,NA,1,1,25,Female
1,22,2-player,CG,1,7,16,10,6.5,91,0,C,0,C,NA,1,1,25,Female
1,22,2-player,CG,1,2,4,7,6.5,26,0,C,0,C,NA,1,1,25,Female
1,22,2-player,CG,1,5,6,6,6.5,39,0,C,0,C,NA,1,1,25,Female
1,22,2-player,CG,1,6,2,7,6.5,13,0,C,0,C,NA,1,1,25,Female
1,22,2-player,CG,1,2,7,7,6.5,45.5,0,C,0,C,NA,1,1,25,Female
1,22,2-player,CG,1,2,9,7,6.5,58.5,0,C,0,C,NA,1,1,25,Female
1,23,2-player,CG,1,7,7,4,6.5,45.5,0,C,0,C,NA,1,1,27,Female
1,23,2-player,CG,1,6,5,5,6.5,32.5,0,C,0,C,NA,1,1,27,Female
1,23,2-player,CG,1,6,4,5,6.5,26,0,C,0,C,NA,1,1,27,Female
1,23,2-player,CG,1,3,2,10,6.5,11.5,0,C,0,C,NA,1,1,27,Female
1,23,2-player,CG,1,4,11,2,6.5,71.5,0,C,0,C,NA,1,1,27,Female
1,23,2-player,CG,1,7,22,4,6.5,143,0,C,0,C,NA,1,1,27,Female
1,23,2-player,CG,1,1,1,3,5,5,0,nC,0,C,NA,4,2,27,Female
1,23,2-player,CG,1,6,11,5,6.5,71.5,0,C,0,C,NA,1,1,27,Female
1,23,2-player,CG,1,6,6,5,6.5,39,0,C,0,C,NA,1,1,27,Female
1,23,2-player,CG,1,4,6,2,6.5,39,0,C,0,C,NA,1,1,27,Female
1,23,2-player,CG,1,3,1,10,5,5,0,nC,0,C,NA,4,2,27,Female
1,23,2-player,CG,1,1,5,3,2.5,15,2,E-,0,E-,NA,9,6,27,Female
1,23,2-player,CG,1,6,9,5,6.5,58.5,0,C,0,C,NA,1,1,27,Female
1,23,2-player,CG,1,7,24,4,6.5,156,0,C,0,C,NA,1,1,27,Female
1,23,2-player,CG,1,6,10,5,6.5,65,0,C,0,C,NA,1,1,27,Female
1,23,2-player,CG,1,7,23,4,6.5,149.5,0,C,0,C,NA,1,1,27,Female
1,23,2-player,CG,1,3,3,10,6.5,18,0,C,0,C,NA,1,1,27,Female
1,23,2-player,CG,1,7,27,4,6.5,175.5,0,C,0,C,NA,1,1,27,Female
1,23,2-player,CG,1,6,12,5,6.5,78,0,C,0,C,NA,1,1,27,Female
1,23,2-player,CG,1,7,8,4,6.5,52,0,C,0,C,NA,1,1,27,Female
1,23,2-player,CG,1,2,2,11,5,10,0,nC,0,C,NA,4,2,27,Female
1,23,2-player,CG,1,1,2,3,2.5,7.5,2,C,0,E,NA,8,5,27,Female
1,23,2-player,CG,1,2,1,11,5,5,0,nC,0,C,NA,4,2,27,Female
1,23,2-player,CG,1,5,3,5,6.5,19.5,0,C,0,C,NA,1,1,27,Female
1,23,2-player,CG,1,7,25,4,6.5,162.5,0,C,0,C,NA,1,1,27,Female
1,23,2-player,CG,1,5,2,5,6.5,13,0,C,0,C,NA,1,1,27,Female
1,23,2-player,CG,1,7,29,4,6.5,188.5,0,C,0,C,NA,1,1,27,Female
1,23,2-player,CG,1,5,1,5,6.5,6.5,0,C,0,C,NA,1,1,27,Female
1,23,2-player,CG,1,7,28,4,6.5,182,0,C,0,C,NA,1,1,27,Female
1,23,2-player,CG,1,4,7,2,6.5,45.5,0,C,0,C,NA,1,1,27,Female
1,23,2-player,CG,1,7,9,4,6.5,58.5,0,C,0,C,NA,1,1,27,Female
1,23,2-player,CG,1,2,3,11,2,12,0,nC,0,nC,NA,6,4,27,Female
1,23,2-player,CG,1,6,7,5,6.5,45.5,0,C,0,C,NA,1,1,27,Female
1,23,2-player,CG,1,2,11,11,2.5,32,4,E-,0,E-,NA,9,6,27,Female
1,23,2-player,CG,1,7,31,4,6.5,201.5,0,C,0,C,NA,1,1,27,Female
1,23,2-player,CG,1,7,26,4,6.5,169,0,C,0,C,NA,1,1,27,Female
1,23,2-player,CG,1,2,10,11,2.5,29.5,4,E-,0,E-,NA,9,6,27,Female
1,23,2-player,CG,1,4,9,2,6.5,58.5,0,C,0,C,NA,1,1,27,Female
1,23,2-player,CG,1,7,34,4,6.5,221,0,C,0,C,NA,1,1,27,Female
1,23,2-player,CG,1,7,11,4,6.5,71.5,0,C,0,C,NA,1,1,27,Female
1,23,2-player,CG,1,3,4,10,6.5,24.5,0,C,0,C,NA,1,1,27,Female
1,23,2-player,CG,1,7,10,4,6.5,65,0,C,0,C,NA,1,1,27,Female
1,23,2-player,CG,1,7,1,4,6.5,6.5,0,C,0,C,NA,1,1,27,Female
1,23,2-player,CG,1,6,8,5,6.5,52,0,C,0,C,NA,1,1,27,Female
1,23,2-player,CG,1,2,12,11,2.5,34.5,4,E-,0,E-,NA,9,6,27,Female
1,23,2-player,CG,1,1,3,3,2.5,10,2,E-,0,E-,NA,9,6,27,Female
1,23,2-player,CG,1,7,36,4,6.5,234,0,C,0,C,NA,1,1,27,Female
1,23,2-player,CG,1,5,4,5,6.5,26,0,C,0,C,NA,1,1,27,Female
1,23,2-player,CG,1,4,10,2,6.5,65,0,C,0,C,NA,1,1,27,Female
1,23,2-player,CG,1,7,35,4,6.5,227.5,0,C,0,C,NA,1,1,27,Female
1,23,2-player,CG,1,7,30,4,6.5,195,0,C,0,C,NA,1,1,27,Female
1,23,2-player,CG,1,3,5,10,6.5,31,0,C,0,C,NA,1,1,27,Female
1,23,2-player,CG,1,2,14,11,2.5,39.5,4,E-,0,E-,NA,9,6,27,Female
1,23,2-player,CG,1,4,8,2,6.5,52,0,C,0,C,NA,1,1,27,Female
1,23,2-player,CG,1,2,13,11,2.5,37,4,E-,0,E-,NA,9,6,27,Female
1,23,2-player,CG,1,2,4,11,2.5,14.5,4,nC,0,E,NA,8,5,27,Female
1,23,2-player,CG,1,1,4,3,2.5,12.5,2,E-,0,E-,NA,9,6,27,Female
1,23,2-player,CG,1,7,37,4,6.5,240.5,0,C,0,C,NA,1,1,27,Female
1,23,2-player,CG,1,7,32,4,6.5,208,0,C,0,C,NA,1,1,27,Female
1,23,2-player,CG,1,4,2,2,6.5,13,0,C,0,C,NA,1,1,27,Female
1,23,2-player,CG,1,7,13,4,6.5,84.5,0,C,0,C,NA,1,1,27,Female
1,23,2-player,CG,1,7,4,4,6.5,26,0,C,0,C,NA,1,1,27,Female
1,23,2-player,CG,1,7,12,4,6.5,78,0,C,0,C,NA,1,1,27,Female
1,23,2-player,CG,1,2,6,11,2.5,19.5,4,E-,0,E-,NA,9,6,27,Female
1,23,2-player,CG,1,7,3,4,6.5,19.5,0,C,0,C,NA,1,1,27,Female
1,23,2-player,CG,1,7,16,4,6.5,104,0,C,0,C,NA,1,1,27,Female
1,23,2-player,CG,1,7,2,4,6.5,13,0,C,0,C,NA,1,1,27,Female
1,23,2-player,CG,1,4,4,2,6.5,26,0,C,0,C,NA,1,1,27,Female
1,23,2-player,CG,1,7,15,4,6.5,97.5,0,C,0,C,NA,1,1,27,Female
1,23,2-player,CG,1,7,33,4,6.5,214.5,0,C,0,C,NA,1,1,27,Female
1,23,2-player,CG,1,7,14,4,6.5,91,0,C,0,C,NA,1,1,27,Female
1,23,2-player,CG,1,5,5,5,6.5,32.5,0,C,0,C,NA,1,1,27,Female
1,23,2-player,CG,1,7,5,4,6.5,32.5,0,C,0,C,NA,1,1,27,Female
1,23,2-player,CG,1,6,2,5,6.5,13,0,C,0,C,NA,1,1,27,Female
1,23,2-player,CG,1,2,7,11,2.5,22,4,E-,0,E-,NA,9,6,27,Female
1,23,2-player,CG,1,4,1,2,6.5,6.5,0,C,0,C,NA,1,1,27,Female
1,23,2-player,CG,1,7,17,4,6.5,110.5,0,C,0,C,NA,1,1,27,Female
1,23,2-player,CG,1,2,8,11,2.5,24.5,4,E-,0,E-,NA,9,6,27,Female
1,23,2-player,CG,1,4,5,2,6.5,32.5,0,C,0,C,NA,1,1,27,Female
1,23,2-player,CG,1,2,5,11,2.5,17,4,E-,0,E-,NA,9,6,27,Female
1,23,2-player,CG,1,6,1,5,6.5,6.5,0,C,0,C,NA,1,1,27,Female
1,23,2-player,CG,1,2,9,11,2.5,27,4,E-,0,E-,NA,9,6,27,Female
1,23,2-player,CG,1,5,6,5,6.5,39,0,C,0,C,NA,1,1,27,Female
1,23,2-player,CG,1,4,3,2,6.5,19.5,0,C,0,C,NA,1,1,27,Female
1,23,2-player,CG,1,7,19,4,6.5,123.5,0,C,0,C,NA,1,1,27,Female
1,23,2-player,CG,1,7,18,4,6.5,117,0,C,0,C,NA,1,1,27,Female
1,23,2-player,CG,1,6,3,5,6.5,19.5,0,C,0,C,NA,1,1,27,Female
1,23,2-player,CG,1,7,20,4,6.5,130,0,C,0,C,NA,1,1,27,Female
1,23,2-player,CG,1,7,21,4,6.5,136.5,0,C,0,C,NA,1,1,27,Female
1,23,2-player,CG,1,7,6,4,6.5,39,0,C,0,C,NA,1,1,27,Female
1,24,2-player,CG,1,7,27,12,6.5,175.5,0,C,0,C,NA,1,1,26,Female
1,24,2-player,CG,1,4,11,9,6.5,71.5,0,C,0,C,NA,1,1,26,Female
1,24,2-player,CG,1,6,9,9,6.5,58.5,0,C,0,C,NA,1,1,26,Female
1,24,2-player,CG,1,7,12,12,6.5,78,0,C,0,C,NA,1,1,26,Female
1,24,2-player,CG,1,4,1,9,6.5,6.5,0,C,0,C,NA,1,1,26,Female
1,24,2-player,CG,1,1,5,4,6.5,32.5,0,C,0,C,NA,1,1,26,Female
1,24,2-player,CG,1,7,7,12,6.5,45.5,0,C,0,C,NA,1,1,26,Female
1,24,2-player,CG,1,2,5,2,6.5,32.5,0,C,0,C,NA,1,1,26,Female
1,24,2-player,CG,1,5,5,10,6.5,32.5,0,C,0,C,NA,1,1,26,Female
1,24,2-player,CG,1,7,32,12,6.5,208,0,C,0,C,NA,1,1,26,Female
1,24,2-player,CG,1,7,22,12,6.5,143,0,C,0,C,NA,1,1,26,Female
1,24,2-player,CG,1,7,28,12,6.5,182,0,C,0,C,NA,1,1,26,Female
1,24,2-player,CG,1,7,8,12,6.5,52,0,C,0,C,NA,1,1,26,Female
1,24,2-player,CG,1,3,1,1,6.5,6.5,0,C,0,C,NA,1,1,26,Female
1,24,2-player,CG,1,2,6,2,6.5,39,0,C,0,C,NA,1,1,26,Female
1,24,2-player,CG,1,7,13,12,6.5,84.5,0,C,0,C,NA,1,1,26,Female
1,24,2-player,CG,1,6,5,9,6.5,32.5,0,C,0,C,NA,1,1,26,Female
1,24,2-player,CG,1,7,2,12,6.5,13,0,C,0,C,NA,1,1,26,Female
1,24,2-player,CG,1,6,4,9,6.5,26,0,C,0,C,NA,1,1,26,Female
1,24,2-player,CG,1,6,10,9,6.5,65,0,C,0,C,NA,1,1,26,Female
1,24,2-player,CG,1,5,1,10,6.5,6.5,0,C,0,C,NA,1,1,26,Female
1,24,2-player,CG,1,7,23,12,6.5,149.5,0,C,0,C,NA,1,1,26,Female
1,24,2-player,CG,1,7,14,12,6.5,91,0,C,0,C,NA,1,1,26,Female
1,24,2-player,CG,1,4,2,9,6.5,13,0,C,0,C,NA,1,1,26,Female
1,24,2-player,CG,1,3,2,1,6.5,13,0,C,0,C,NA,1,1,26,Female
1,24,2-player,CG,1,7,4,12,6.5,26,0,C,0,C,NA,1,1,26,Female
1,24,2-player,CG,1,6,11,9,6.5,71.5,0,C,0,C,NA,1,1,26,Female
1,24,2-player,CG,1,6,6,9,6.5,39,0,C,0,C,NA,1,1,26,Female
1,24,2-player,CG,1,2,1,2,6.5,6.5,0,C,0,C,NA,1,1,26,Female
1,24,2-player,CG,1,1,1,4,6.5,6.5,0,C,0,C,NA,1,1,26,Female
1,24,2-player,CG,1,6,1,9,6.5,6.5,0,C,0,C,NA,1,1,26,Female
1,24,2-player,CG,1,7,29,12,6.5,188.5,0,C,0,C,NA,1,1,26,Female
1,24,2-player,CG,1,5,6,10,6.5,39,0,C,0,C,NA,1,1,26,Female
1,24,2-player,CG,1,7,33,12,6.5,214.5,0,C,0,C,NA,1,1,26,Female
1,24,2-player,CG,1,4,3,9,6.5,19.5,0,C,0,C,NA,1,1,26,Female
1,24,2-player,CG,1,3,3,1,6.5,19.5,0,C,0,C,NA,1,1,26,Female
1,24,2-player,CG,1,7,9,12,6.5,58.5,0,C,0,C,NA,1,1,26,Female
1,24,2-player,CG,1,4,6,9,6.5,39,0,C,0,C,NA,1,1,26,Female
1,24,2-player,CG,1,2,7,2,6.5,45.5,0,C,0,C,NA,1,1,26,Female
1,24,2-player,CG,1,2,2,2,6.5,13,0,C,0,C,NA,1,1,26,Female
1,24,2-player,CG,1,1,2,4,6.5,13,0,C,0,C,NA,1,1,26,Female
1,24,2-player,CG,1,7,3,12,6.5,19.5,0,C,0,C,NA,1,1,26,Female
1,24,2-player,CG,1,7,30,12,6.5,195,0,C,0,C,NA,1,1,26,Female
1,24,2-player,CG,1,7,25,12,6.5,162.5,0,C,0,C,NA,1,1,26,Female
1,24,2-player,CG,1,5,2,10,6.5,13,0,C,0,C,NA,1,1,26,Female
1,24,2-player,CG,1,7,24,12,6.5,156,0,C,0,C,NA,1,1,26,Female
1,24,2-player,CG,1,7,15,12,6.5,97.5,0,C,0,C,NA,1,1,26,Female
1,24,2-player,CG,1,7,10,12,6.5,65,0,C,0,C,NA,1,1,26,Female
1,24,2-player,CG,1,4,7,9,6.5,45.5,0,C,0,C,NA,1,1,26,Female
1,24,2-player,CG,1,7,5,12,6.5,32.5,0,C,0,C,NA,1,1,26,Female
1,24,2-player,CG,1,6,12,9,6.5,78,0,C,0,C,NA,1,1,26,Female
1,24,2-player,CG,1,6,7,9,6.5,45.5,0,C,0,C,NA,1,1,26,Female
1,24,2-player,CG,1,2,11,2,6.5,71.5,0,C,0,C,NA,1,1,26,Female
1,24,2-player,CG,1,7,17,12,6.5,110.5,0,C,0,C,NA,1,1,26,Female
1,24,2-player,CG,1,6,2,9,6.5,13,0,C,0,C,NA,1,1,26,Female
1,24,2-player,CG,1,5,3,10,6.5,19.5,0,C,0,C,NA,1,1,26,Female
1,24,2-player,CG,1,4,9,9,6.5,58.5,0,C,0,C,NA,1,1,26,Female
1,24,2-player,CG,1,7,34,12,6.5,221,0,C,0,C,NA,1,1,26,Female
1,24,2-player,CG,1,4,4,9,6.5,26,0,C,0,C,NA,1,1,26,Female
1,24,2-player,CG,1,3,4,1,6.5,26,0,C,0,C,NA,1,1,26,Female
1,24,2-player,CG,1,2,13,2,6.5,84.5,0,C,0,C,NA,1,1,26,Female
1,24,2-player,CG,1,7,19,12,6.5,123.5,0,C,0,C,NA,1,1,26,Female
1,24,2-player,CG,1,2,8,2,6.5,52,0,C,0,C,NA,1,1,26,Female
1,24,2-player,CG,1,2,3,2,6.5,19.5,0,C,0,C,NA,1,1,26,Female
1,24,2-player,CG,1,1,3,4,6.5,19.5,0,C,0,C,NA,1,1,26,Female
1,24,2-player,CG,1,7,36,12,6.5,234,0,C,0,C,NA,1,1,26,Female
1,24,2-player,CG,1,7,31,12,6.5,201.5,0,C,0,C,NA,1,1,26,Female
1,24,2-player,CG,1,7,26,12,6.5,169,0,C,0,C,NA,1,1,26,Female
1,24,2-player,CG,1,2,10,2,6.5,65,0,C,0,C,NA,1,1,26,Female
1,24,2-player,CG,1,7,21,12,6.5,136.5,0,C,0,C,NA,1,1,26,Female
1,24,2-player,CG,1,7,16,12,6.5,104,0,C,0,C,NA,1,1,26,Female
1,24,2-player,CG,1,7,11,12,6.5,71.5,0,C,0,C,NA,1,1,26,Female
1,24,2-player,CG,1,4,8,9,6.5,52,0,C,0,C,NA,1,1,26,Female
1,24,2-player,CG,1,7,6,12,6.5,39,0,C,0,C,NA,1,1,26,Female
1,24,2-player,CG,1,7,1,12,6.5,6.5,0,C,0,C,NA,1,1,26,Female
1,24,2-player,CG,1,6,8,9,6.5,52,0,C,0,C,NA,1,1,26,Female
1,24,2-player,CG,1,2,12,2,6.5,78,0,C,0,C,NA,1,1,26,Female
1,24,2-player,CG,1,7,18,12,6.5,117,0,C,0,C,NA,1,1,26,Female
1,24,2-player,CG,1,6,3,9,6.5,19.5,0,C,0,C,NA,1,1,26,Female
1,24,2-player,CG,1,5,4,10,6.5,26,0,C,0,C,NA,1,1,26,Female
1,24,2-player,CG,1,4,10,9,6.5,65,0,C,0,C,NA,1,1,26,Female
1,24,2-player,CG,1,7,35,12,6.5,227.5,0,C,0,C,NA,1,1,26,Female
1,24,2-player,CG,1,4,5,9,6.5,32.5,0,C,0,C,NA,1,1,26,Female
1,24,2-player,CG,1,3,5,1,6.5,32.5,0,C,0,C,NA,1,1,26,Female
1,24,2-player,CG,1,2,14,2,6.5,91,0,C,0,C,NA,1,1,26,Female
1,24,2-player,CG,1,7,20,12,6.5,130,0,C,0,C,NA,1,1,26,Female
1,24,2-player,CG,1,2,9,2,6.5,58.5,0,C,0,C,NA,1,1,26,Female
1,24,2-player,CG,1,2,4,2,6.5,26,0,C,0,C,NA,1,1,26,Female
1,24,2-player,CG,1,1,4,4,6.5,26,0,C,0,C,NA,1,1,26,Female
1,24,2-player,CG,1,7,37,12,6.5,240.5,0,C,0,C,NA,1,1,26,Female
1,3,2-player,CG,1,7,24,5,6.5,156,0,C,0,C,NA,1,1,19,Female
1,3,2-player,CG,1,7,26,5,6.5,169,0,C,0,C,NA,1,1,19,Female
1,3,2-player,CG,1,6,7,2,6.5,45.5,0,C,0,C,NA,1,1,19,Female
1,3,2-player,CG,1,6,9,2,6.5,58.5,0,C,0,C,NA,1,1,19,Female
1,3,2-player,CG,1,7,29,5,6.5,188.5,0,C,0,C,NA,1,1,19,Female
1,3,2-player,CG,1,3,3,6,6.5,19.5,0,C,0,C,NA,1,1,19,Female
1,3,2-player,CG,1,6,11,2,6.5,71.5,0,C,0,C,NA,1,1,19,Female
1,3,2-player,CG,1,3,4,6,6.5,26,0,C,0,C,NA,1,1,19,Female
1,3,2-player,CG,1,6,10,2,6.5,65,0,C,0,C,NA,1,1,19,Female
1,3,2-player,CG,1,7,25,5,6.5,162.5,0,C,0,C,NA,1,1,19,Female
1,3,2-player,CG,1,5,2,4,6.5,13,0,C,0,C,NA,1,1,19,Female
1,3,2-player,CG,1,7,9,5,6.5,58.5,0,C,0,C,NA,1,1,19,Female
1,3,2-player,CG,1,4,8,9,6.5,52,0,C,0,C,NA,1,1,19,Female
1,3,2-player,CG,1,6,8,2,6.5,52,0,C,0,C,NA,1,1,19,Female
1,3,2-player,CG,1,7,1,5,6.5,6.5,0,C,0,C,NA,1,1,19,Female
1,3,2-player,CG,1,7,11,5,6.5,71.5,0,C,0,C,NA,1,1,19,Female
1,3,2-player,CG,1,2,12,7,6.5,78,0,C,0,C,NA,1,1,19,Female
1,3,2-player,CG,1,7,27,5,6.5,175.5,0,C,0,C,NA,1,1,19,Female
1,3,2-player,CG,1,6,6,2,6.5,39,0,C,0,C,NA,1,1,19,Female
1,3,2-player,CG,1,5,4,4,6.5,26,0,C,0,C,NA,1,1,19,Female
1,3,2-player,CG,1,4,1,9,6.5,6.5,0,C,0,C,NA,1,1,19,Female
1,3,2-player,CG,1,5,3,4,6.5,19.5,0,C,0,C,NA,1,1,19,Female
1,3,2-player,CG,1,7,30,5,6.5,195,0,C,0,C,NA,1,1,19,Female
1,3,2-player,CG,1,3,5,6,6.5,32.5,0,C,0,C,NA,1,1,19,Female
1,3,2-player,CG,1,2,14,7,6.5,91,0,C,0,C,NA,1,1,19,Female
1,3,2-player,CG,1,7,2,5,6.5,13,0,C,0,C,NA,1,1,19,Female
1,3,2-player,CG,1,2,13,7,6.5,84.5,0,C,0,C,NA,1,1,19,Female
1,3,2-player,CG,1,7,10,5,6.5,65,0,C,0,C,NA,1,1,19,Female
1,3,2-player,CG,1,7,28,5,6.5,182,0,C,0,C,NA,1,1,19,Female
1,3,2-player,CG,1,7,14,5,6.5,91,0,C,0,C,NA,1,1,19,Female
1,3,2-player,CG,1,6,12,2,6.5,78,0,C,0,C,NA,1,1,19,Female
1,3,2-player,CG,1,4,2,9,6.5,13,0,C,0,C,NA,1,1,19,Female
1,3,2-player,CG,1,3,2,6,6.5,13,0,C,0,C,NA,1,1,19,Female
1,3,2-player,CG,1,7,31,5,6.5,201.5,0,C,0,C,NA,1,1,19,Female
1,3,2-player,CG,1,3,1,6,6.5,6.5,0,C,0,C,NA,1,1,19,Female
1,3,2-player,CG,1,7,12,5,6.5,78,0,C,0,C,NA,1,1,19,Female
1,3,2-player,CG,1,4,9,9,6.5,58.5,0,C,0,C,NA,1,1,19,Female
1,3,2-player,CG,1,7,16,5,6.5,104,0,C,0,C,NA,1,1,19,Female
1,3,2-player,CG,1,2,5,7,6.5,32.5,0,C,0,C,NA,1,1,19,Female
1,3,2-player,CG,1,4,4,9,6.5,26,0,C,0,C,NA,1,1,19,Female
1,3,2-player,CG,1,7,15,5,6.5,97.5,0,C,0,C,NA,1,1,19,Female
1,3,2-player,CG,1,7,33,5,6.5,214.5,0,C,0,C,NA,1,1,19,Female
1,3,2-player,CG,1,4,3,9,6.5,19.5,0,C,0,C,NA,1,1,19,Female
1,3,2-player,CG,1,5,5,4,6.5,32.5,0,C,0,C,NA,1,1,19,Female
1,3,2-player,CG,1,4,11,9,6.5,71.5,0,C,0,C,NA,1,1,19,Female
1,3,2-player,CG,1,7,18,5,6.5,117,0,C,0,C,NA,1,1,19,Female
1,3,2-player,CG,1,7,13,5,6.5,84.5,0,C,0,C,NA,1,1,19,Female
1,3,2-player,CG,1,4,6,9,6.5,39,0,C,0,C,NA,1,1,19,Female
1,3,2-player,CG,1,7,17,5,6.5,110.5,0,C,0,C,NA,1,1,19,Female
1,3,2-player,CG,1,7,3,5,6.5,19.5,0,C,0,C,NA,1,1,19,Female
1,3,2-player,CG,1,4,5,9,6.5,32.5,0,C,0,C,NA,1,1,19,Female
1,3,2-player,CG,1,1,1,6,6.5,6.5,0,C,0,C,NA,1,1,19,Female
1,3,2-player,CG,1,1,5,6,6.5,32.5,0,C,0,C,NA,1,1,19,Female
1,3,2-player,CG,1,7,7,5,6.5,45.5,0,C,0,C,NA,1,1,19,Female
1,3,2-player,CG,1,5,6,4,6.5,39,0,C,0,C,NA,1,1,19,Female
1,3,2-player,CG,1,5,1,4,6.5,6.5,0,C,0,C,NA,1,1,19,Female
1,3,2-player,CG,1,7,19,5,6.5,123.5,0,C,0,C,NA,1,1,19,Female
1,3,2-player,CG,1,7,32,5,6.5,208,0,C,0,C,NA,1,1,19,Female
1,3,2-player,CG,1,4,7,9,6.5,45.5,0,C,0,C,NA,1,1,19,Female
1,3,2-player,CG,1,1,3,6,6.5,19.5,0,C,0,C,NA,1,1,19,Female
1,3,2-player,CG,1,4,10,9,6.5,65,0,C,0,C,NA,1,1,19,Female
1,3,2-player,CG,1,2,2,7,6.5,13,0,C,0,C,NA,1,1,19,Female
1,3,2-player,CG,1,2,6,7,6.5,39,0,C,0,C,NA,1,1,19,Female
1,3,2-player,CG,1,2,1,7,6.5,6.5,0,C,0,C,NA,1,1,19,Female
1,3,2-player,CG,1,7,21,5,6.5,136.5,0,C,0,C,NA,1,1,19,Female
1,3,2-player,CG,1,7,34,5,6.5,221,0,C,0,C,NA,1,1,19,Female
1,3,2-player,CG,1,2,10,7,6.5,65,0,C,0,C,NA,1,1,19,Female
1,3,2-player,CG,1,7,20,5,6.5,130,0,C,0,C,NA,1,1,19,Female
1,3,2-player,CG,1,7,6,5,6.5,39,0,C,0,C,NA,1,1,19,Female
1,3,2-player,CG,1,2,4,7,6.5,26,0,C,0,C,NA,1,1,19,Female
1,3,2-player,CG,1,2,8,7,6.5,52,0,C,0,C,NA,1,1,19,Female
1,3,2-player,CG,1,2,3,7,6.5,19.5,0,C,0,C,NA,1,1,19,Female
1,3,2-player,CG,1,7,23,5,6.5,149.5,0,C,0,C,NA,1,1,19,Female
1,3,2-player,CG,1,7,4,5,6.5,26,0,C,0,C,NA,1,1,19,Female
1,3,2-player,CG,1,7,36,5,6.5,234,0,C,0,C,NA,1,1,19,Female
1,3,2-player,CG,1,1,2,6,6.5,13,0,C,0,C,NA,1,1,19,Female
1,3,2-player,CG,1,7,35,5,6.5,227.5,0,C,0,C,NA,1,1,19,Female
1,3,2-player,CG,1,7,8,5,6.5,52,0,C,0,C,NA,1,1,19,Female
1,3,2-player,CG,1,6,1,2,6.5,6.5,0,C,0,C,NA,1,1,19,Female
1,3,2-player,CG,1,1,4,6,6.5,26,0,C,0,C,NA,1,1,19,Female
1,3,2-player,CG,1,7,5,5,6.5,32.5,0,C,0,C,NA,1,1,19,Female
1,3,2-player,CG,1,2,9,7,6.5,58.5,0,C,0,C,NA,1,1,19,Female
1,3,2-player,CG,1,6,5,2,6.5,32.5,0,C,0,C,NA,1,1,19,Female
1,3,2-player,CG,1,6,3,2,6.5,19.5,0,C,0,C,NA,1,1,19,Female
1,3,2-player,CG,1,7,22,5,6.5,143,0,C,0,C,NA,1,1,19,Female
1,3,2-player,CG,1,7,37,5,6.5,240.5,0,C,0,C,NA,1,1,19,Female
1,3,2-player,CG,1,2,7,7,6.5,45.5,0,C,0,C,NA,1,1,19,Female
1,3,2-player,CG,1,6,2,2,6.5,13,0,C,0,C,NA,1,1,19,Female
1,3,2-player,CG,1,2,11,7,6.5,71.5,0,C,0,C,NA,1,1,19,Female
1,3,2-player,CG,1,6,4,2,6.5,26,0,C,0,C,NA,1,1,19,Female
1,4,2-player,CG,1,6,9,8,6.5,58.5,0,C,0,C,NA,1,1,25,Male
1,4,2-player,CG,1,7,29,2,6.5,188.5,0,C,0,C,NA,1,1,25,Male
1,4,2-player,CG,1,7,30,2,6.5,195,0,C,0,C,NA,1,1,25,Male
1,4,2-player,CG,1,7,2,2,6.5,13,0,C,0,C,NA,1,1,25,Male
1,4,2-player,CG,1,7,24,2,6.5,156,0,C,0,C,NA,1,1,25,Male
1,4,2-player,CG,1,6,8,8,6.5,52,0,C,0,C,NA,1,1,25,Male
1,4,2-player,CG,1,4,3,3,6.5,19.5,0,C,0,C,NA,1,1,25,Male
1,4,2-player,CG,1,5,2,2,6.5,13,0,C,0,C,NA,1,1,25,Male
1,4,2-player,CG,1,6,7,8,6.5,45.5,0,C,0,C,NA,1,1,25,Male
1,4,2-player,CG,1,7,32,2,6.5,208,0,C,0,C,NA,1,1,25,Male
1,4,2-player,CG,1,6,6,8,6.5,39,0,C,0,C,NA,1,1,25,Male
1,4,2-player,CG,1,7,31,2,6.5,201.5,0,C,0,C,NA,1,1,25,Male
1,4,2-player,CG,1,7,26,2,6.5,169,0,C,0,C,NA,1,1,25,Male
1,4,2-player,CG,1,6,10,8,6.5,65,0,C,0,C,NA,1,1,25,Male
1,4,2-player,CG,1,5,3,2,6.5,19.5,0,C,0,C,NA,1,1,25,Male
1,4,2-player,CG,1,6,1,8,6.5,6.5,0,C,0,C,NA,1,1,25,Male
1,4,2-player,CG,1,7,34,2,6.5,221,0,C,0,C,NA,1,1,25,Male
1,4,2-player,CG,1,4,4,3,6.5,26,0,C,0,C,NA,1,1,25,Male
1,4,2-player,CG,1,7,1,2,6.5,6.5,0,C,0,C,NA,1,1,25,Male
1,4,2-player,CG,1,2,13,4,6.5,84.5,0,C,0,C,NA,1,1,25,Male
1,4,2-player,CG,1,3,3,5,6.5,19.5,0,C,0,C,NA,1,1,25,Male
1,4,2-player,CG,1,6,12,8,6.5,78,0,C,0,C,NA,1,1,25,Male
1,4,2-player,CG,1,7,9,2,6.5,58.5,0,C,0,C,NA,1,1,25,Male
1,4,2-player,CG,1,6,11,8,6.5,71.5,0,C,0,C,NA,1,1,25,Male
1,4,2-player,CG,1,7,4,2,6.5,26,0,C,0,C,NA,1,1,25,Male
1,4,2-player,CG,1,4,6,3,6.5,39,0,C,0,C,NA,1,1,25,Male
1,4,2-player,CG,1,7,3,2,6.5,19.5,0,C,0,C,NA,1,1,25,Male
1,4,2-player,CG,1,3,1,5,6.5,6.5,0,C,0,C,NA,1,1,25,Male
1,4,2-player,CG,1,7,25,2,6.5,162.5,0,C,0,C,NA,1,1,25,Male
1,4,2-player,CG,1,7,16,2,6.5,104,0,C,0,C,NA,1,1,25,Male
1,4,2-player,CG,1,7,11,2,6.5,71.5,0,C,0,C,NA,1,1,25,Male
1,4,2-player,CG,1,3,4,5,6.5,26,0,C,0,C,NA,1,1,25,Male
1,4,2-player,CG,1,7,6,2,6.5,39,0,C,0,C,NA,1,1,25,Male
1,4,2-player,CG,1,7,33,2,6.5,214.5,0,C,0,C,NA,1,1,25,Male
1,4,2-player,CG,1,7,14,2,6.5,91,0,C,0,C,NA,1,1,25,Male
1,4,2-player,CG,1,2,12,4,6.5,78,0,C,0,C,NA,1,1,25,Male
1,4,2-player,CG,1,7,27,2,6.5,175.5,0,C,0,C,NA,1,1,25,Male
1,4,2-player,CG,1,6,3,8,6.5,19.5,0,C,0,C,NA,1,1,25,Male
1,4,2-player,CG,1,5,4,2,6.5,26,0,C,0,C,NA,1,1,25,Male
1,4,2-player,CG,1,6,2,8,6.5,13,0,C,0,C,NA,1,1,25,Male
1,4,2-player,CG,1,7,35,2,6.5,227.5,0,C,0,C,NA,1,1,25,Male
1,4,2-player,CG,1,4,5,3,6.5,32.5,0,C,0,C,NA,1,1,25,Male
1,4,2-player,CG,1,3,5,5,6.5,32.5,0,C,0,C,NA,1,1,25,Male
1,4,2-player,CG,1,2,14,4,6.5,91,0,C,0,C,NA,1,1,25,Male
1,4,2-player,CG,1,4,8,3,6.5,52,0,C,0,C,NA,1,1,25,Male
1,4,2-player,CG,1,7,15,2,6.5,97.5,0,C,0,C,NA,1,1,25,Male
1,4,2-player,CG,1,7,10,2,6.5,65,0,C,0,C,NA,1,1,25,Male
1,4,2-player,CG,1,7,28,2,6.5,182,0,C,0,C,NA,1,1,25,Male
1,4,2-player,CG,1,7,5,2,6.5,32.5,0,C,0,C,NA,1,1,25,Male
1,4,2-player,CG,1,4,7,3,6.5,45.5,0,C,0,C,NA,1,1,25,Male
1,4,2-player,CG,1,4,2,3,6.5,13,0,C,0,C,NA,1,1,25,Male
1,4,2-player,CG,1,3,2,5,6.5,13,0,C,0,C,NA,1,1,25,Male
1,4,2-player,CG,1,4,1,3,6.5,6.5,0,C,0,C,NA,1,1,25,Male
1,4,2-player,CG,1,7,17,2,6.5,110.5,0,C,0,C,NA,1,1,25,Male
1,4,2-player,CG,1,7,12,2,6.5,78,0,C,0,C,NA,1,1,25,Male
1,4,2-player,CG,1,4,9,3,6.5,58.5,0,C,0,C,NA,1,1,25,Male
1,4,2-player,CG,1,7,7,2,6.5,45.5,0,C,0,C,NA,1,1,25,Male
1,4,2-player,CG,1,1,1,9,6.5,6.5,0,C,0,C,NA,1,1,25,Male
1,4,2-player,CG,1,2,5,4,6.5,32.5,0,C,0,C,NA,1,1,25,Male
1,4,2-player,CG,1,1,5,9,6.5,32.5,0,C,0,C,NA,1,1,25,Male
1,4,2-player,CG,1,7,19,2,6.5,123.5,0,C,0,C,NA,1,1,25,Male
1,4,2-player,CG,1,6,4,8,6.5,26,0,C,0,C,NA,1,1,25,Male
1,4,2-player,CG,1,5,5,2,6.5,32.5,0,C,0,C,NA,1,1,25,Male
1,4,2-player,CG,1,4,11,3,6.5,71.5,0,C,0,C,NA,1,1,25,Male
1,4,2-player,CG,1,7,36,2,6.5,234,0,C,0,C,NA,1,1,25,Male
1,4,2-player,CG,1,1,3,9,6.5,19.5,0,C,0,C,NA,1,1,25,Male
1,4,2-player,CG,1,4,10,3,6.5,65,0,C,0,C,NA,1,1,25,Male
1,4,2-player,CG,1,7,8,2,6.5,52,0,C,0,C,NA,1,1,25,Male
1,4,2-player,CG,1,7,21,2,6.5,136.5,0,C,0,C,NA,1,1,25,Male
1,4,2-player,CG,1,2,10,4,6.5,65,0,C,0,C,NA,1,1,25,Male
1,4,2-player,CG,1,2,1,4,6.5,6.5,0,C,0,C,NA,1,1,25,Male
1,4,2-player,CG,1,7,20,2,6.5,130,0,C,0,C,NA,1,1,25,Male
1,4,2-player,CG,1,6,5,8,6.5,32.5,0,C,0,C,NA,1,1,25,Male
